Subj_idx,Stimulus,Response,Confidence,RT_dec,RT_conf,age,female_male,trial,block,set_size,target_position,Accuracy,Condition
1,1,1,4,0.7853,0.561,21,1,1,1,6,4,1,FM
1,0,0,3,1.5119,0.7883,21,1,2,1,6,5,1,FM
1,1,1,2,0.8036,0.6548,21,1,3,1,7,1,1,FM
1,1,1,4,0.8042,0.6228,21,1,4,1,8,7,1,FM
1,1,1,2,0.9936,0.6334,21,1,5,1,9,3,1,FM
1,1,1,3,0.8141,2.2514,21,1,6,1,10,3,1,FM
1,0,1,2,1.2485,0.7903,21,1,7,1,11,11,0,FM
1,1,1,3,1.0943,1.7427,21,1,8,1,10,1,1,FM
1,0,0,3,1.1737,0.6633,21,1,9,1,10,1,1,FM
1,0,1,2,1.2493,0.9441,21,1,10,1,11,10,0,FM
1,1,0,3,1.4797,0.3136,21,1,11,1,10,2,0,FM
1,0,1,2,1.0886,0.3985,21,1,12,1,9,4,0,FM
1,1,1,2,0.721,0.8745,21,1,13,1,8,2,1,FM
1,1,1,2,1.3536,0.5929,21,1,14,1,8,4,1,FM
1,0,0,3,0.9308,1.1474,21,1,15,1,9,4,1,FM
1,0,0,3,1.0806,0.7469,21,1,16,1,10,8,1,FM
1,0,1,2,1.1633,1.1118,21,1,17,1,11,1,0,FM
1,0,0,2,1.1188,0.9848,21,1,18,1,10,9,1,FM
1,0,0,3,1.0555,0.7888,21,1,19,1,10,5,1,FM
1,0,0,3,0.878,0.561,21,1,20,1,11,3,1,FM
1,0,0,2,1.0791,1.1193,21,1,21,1,12,4,1,FM
1,1,1,3,0.7828,0.5926,21,1,22,1,12,5,1,FM
1,1,1,3,0.9308,0.3139,21,1,23,1,12,2,1,FM
1,1,0,2,1.8837,1.5162,21,1,24,1,12,1,0,FM
1,0,0,4,1.3333,1.2684,21,1,25,1,11,6,1,FM
1,1,1,2,1.3756,0.5814,21,1,26,1,11,9,1,FM
1,1,0,2,1.7334,0.6635,21,1,27,1,12,3,0,FM
1,1,0,2,1.4485,1.0261,21,1,28,1,11,4,0,FM
1,1,1,3,0.9842,1.4775,21,1,29,1,10,6,1,FM
1,1,1,2,1.0147,0.7588,21,1,30,1,10,10,1,FM
1,0,1,3,0.7839,0.4797,21,1,31,1,11,8,0,FM
1,1,1,4,0.878,0.7463,21,1,32,1,10,1,1,FM
1,0,0,3,1.0414,0.9021,21,1,33,1,10,6,1,FM
1,1,0,2,1.2693,1.0346,21,1,34,1,11,10,0,FM
1,1,1,2,1.9148,1.1098,21,1,35,1,10,7,1,FM
1,1,1,2,0.8036,0.7634,21,1,36,1,10,5,1,FM
1,1,0,3,1.8283,0.6381,21,1,37,1,11,3,0,FM
1,0,0,3,0.9201,0.9909,21,1,38,1,10,2,1,FM
1,1,0,3,1.0315,0.737,21,1,39,1,10,3,0,FM
1,1,1,3,0.8463,0.7178,21,1,40,1,9,7,1,FM
1,1,0,2,1.1102,1.2355,21,1,41,1,9,1,0,FM
1,1,1,2,2.072,0.9952,21,1,42,1,8,7,1,FM
1,1,1,3,0.6557,1.0777,21,1,43,1,8,5,1,FM
1,0,0,3,1.0783,0.9035,21,1,44,1,9,5,1,FM
1,0,1,3,1.3903,0.8313,21,1,45,1,10,8,0,FM
1,1,1,4,0.7197,0.9573,21,1,46,1,9,6,1,FM
1,0,0,3,1.2474,1.8964,21,1,47,1,9,8,1,FM
1,0,0,4,0.868,0.8301,21,1,48,1,10,10,1,FM
1,0,0,2,1.6391,0.7047,21,1,49,1,11,5,1,FM
1,0,0,3,1.6707,0.4751,21,1,50,1,12,8,1,FM
1,0,0,2,1.639,0.8732,21,1,51,1,12,4,1,FM
1,0,1,2,2.5383,0.9144,21,1,52,1,12,3,0,FM
1,1,1,2,1.078,1.3186,21,1,53,1,11,1,1,FM
1,0,0,3,0.7611,0.5598,21,1,54,1,11,3,1,FM
1,0,0,3,0.7932,0.3938,21,1,55,1,12,7,1,FM
1,1,0,3,0.8881,0.7198,21,1,56,1,12,12,0,FM
1,0,0,3,1.2373,0.5185,21,1,57,1,11,10,1,FM
1,1,1,3,1.6805,0.3964,21,1,58,1,11,10,1,FM
1,1,0,3,0.8778,0.7072,21,1,59,1,12,3,0,FM
1,1,1,3,0.7612,0.4798,21,1,60,1,11,7,1,FM
1,0,0,4,0.9177,0.5519,21,1,61,1,11,8,1,FM
1,1,0,2,1.0242,0.9237,21,1,62,1,12,2,0,FM
1,1,1,4,0.7629,0.6333,21,1,63,1,11,2,1,FM
1,0,0,3,0.8367,0.551,21,1,64,1,11,10,1,FM
1,1,1,3,0.8047,0.6026,21,1,65,1,12,3,1,FM
1,0,0,4,0.7192,1.0226,21,1,66,1,12,2,1,FM
1,0,0,3,1.0101,0.4993,21,1,67,1,12,7,1,FM
1,1,0,2,0.7204,0.604,21,1,68,1,12,5,0,FM
1,0,0,3,1.0268,0.5599,21,1,69,1,11,9,1,FM
1,0,0,3,0.8351,0.758,21,1,70,1,11,10,1,FM
1,1,1,3,1.1322,1.4831,21,1,71,1,12,12,1,FM
1,1,1,3,0.8035,0.8314,21,1,72,1,12,9,1,FM
1,1,1,3,0.8883,0.7889,21,1,73,1,12,10,1,FM
1,0,1,2,1.2064,0.7899,21,1,74,1,12,3,0,FM
1,1,1,4,0.6843,0.4805,21,1,75,1,11,7,1,FM
1,0,0,2,1.5644,0.4674,21,1,76,1,11,1,1,FM
1,0,0,2,1.4062,0.4369,21,1,77,1,12,4,1,FM
1,0,0,2,1.1951,0.6334,21,1,78,1,12,5,1,FM
1,0,0,2,1.3975,0.4368,21,1,79,1,12,4,1,FM
1,0,1,2,1.5537,0.7268,21,1,80,1,12,2,0,FM
1,1,1,2,1.5537,0.6344,21,1,81,1,11,7,1,FM
1,0,0,2,1.1107,1.0681,21,1,82,1,11,10,1,FM
1,1,0,1,0.8985,0.9131,21,1,83,1,12,4,0,FM
1,0,0,3,0.8039,0.5195,21,1,84,1,11,7,1,FM
1,1,1,3,1.1615,1.8656,21,1,85,1,11,9,1,FM
1,1,1,3,0.8034,0.6749,21,1,86,1,12,12,1,FM
1,0,0,3,1.037,0.4786,21,1,87,1,12,5,1,FM
1,1,1,3,0.677,0.2817,21,1,88,1,12,8,1,FM
1,0,1,2,1.554,0.801,21,1,89,1,12,10,0,FM
1,1,1,4,0.7211,0.3228,21,1,90,1,11,7,1,FM
1,0,0,3,2.0545,0.6947,21,1,91,1,11,5,1,FM
1,1,1,4,1.438,0.3215,21,1,92,1,12,4,1,FM
1,1,1,4,1.1842,1.0791,21,1,93,1,12,3,1,FM
1,0,0,3,1.1241,0.7489,21,1,94,1,12,4,1,FM
1,1,1,2,1.3637,0.7473,21,1,95,1,12,3,1,FM
1,1,1,1,1.3533,2.9638,21,1,96,1,12,5,1,FM
1,0,0,4,1.3197,0.3584,21,1,97,1,12,1,1,FM
1,0,0,4,0.7294,0.1678,21,1,98,1,12,9,1,FM
1,1,1,4,0.7087,0.6158,21,1,99,1,12,11,1,FM
1,0,0,4,0.7617,0.1556,21,1,100,1,12,3,1,FM
1,1,0,2,1.2593,0.4665,21,1,101,1,12,5,0,FM
1,0,0,3,0.8776,0.5598,21,1,102,1,11,7,1,FM
1,0,0,2,0.8788,0.8405,21,1,103,1,11,8,1,FM
1,0,0,3,2.1093,0.9948,21,1,104,1,12,10,1,FM
1,0,0,2,1.4,1.3064,21,1,105,1,12,10,1,FM
1,0,0,4,1.1183,0.3231,21,1,106,1,12,1,1,FM
1,1,1,4,1.7073,0.3125,21,1,107,1,12,10,1,FM
1,0,0,2,1.4749,0.3733,21,1,108,1,12,12,1,FM
1,1,1,4,0.7199,0.4259,21,1,109,1,12,8,1,FM
1,1,1,4,1.0785,0.3137,21,1,110,1,12,12,1,FM
1,0,1,2,2.2194,0.789,21,1,111,1,12,9,0,FM
1,0,0,4,0.6769,0.2405,21,1,112,1,11,9,1,FM
1,1,1,4,1.0366,0.291,21,1,113,1,11,6,1,FM
1,0,0,3,1.2742,1.3102,21,1,114,1,12,4,1,FM
1,0,1,2,0.7769,0.5937,21,1,115,1,12,9,0,FM
1,1,1,4,0.6803,0.2844,21,1,116,1,11,7,1,FM
1,1,1,2,1.3961,0.354,21,1,117,1,11,6,1,FM
1,0,0,3,0.8807,0.9652,21,1,118,1,12,1,1,FM
1,0,0,4,0.7158,0.5909,21,1,119,1,12,2,1,FM
1,1,1,4,0.9528,0.2813,21,1,120,1,12,1,1,FM
2,1,1,4,0.9308,0.4474,20,2,1,1,6,1,1,FM
2,0,0,4,1.0399,0.345,20,2,2,1,6,3,1,FM
2,1,1,3,1.9571,1.226,20,2,3,1,7,5,1,FM
2,1,1,4,1.089,0.6335,20,2,4,1,8,7,1,FM
2,0,0,3,1.7145,2.2992,20,2,5,1,9,6,1,FM
2,0,1,4,0.9945,0.3146,20,2,6,1,10,6,0,FM
2,1,1,4,0.7196,0.2832,20,2,7,1,9,7,1,FM
2,1,1,4,0.8039,0.1989,20,2,8,1,9,3,1,FM
2,0,1,4,0.9526,0.2818,20,2,9,1,10,2,0,FM
2,1,1,4,0.7943,0.2526,20,2,10,1,9,1,1,FM
2,0,1,4,0.9639,0.2712,20,2,11,1,9,3,0,FM
2,1,1,4,0.8997,0.3234,20,2,12,1,8,4,1,FM
2,0,1,2,2.4208,2.0231,20,2,13,1,8,2,0,FM
2,0,0,2,2.6975,0.9105,20,2,14,1,7,5,1,FM
2,1,1,4,0.7195,0.2361,20,2,15,1,7,6,1,FM
2,0,0,4,1.431,0.5213,20,2,16,1,8,1,1,FM
2,0,0,4,0.9567,0.2925,20,2,17,1,9,6,1,FM
2,1,1,4,0.7091,0.1482,20,2,18,1,10,7,1,FM
2,1,1,4,0.8593,0.2404,20,2,19,1,11,1,1,FM
2,1,1,3,1.3508,1.0797,20,2,20,1,12,7,1,FM
2,0,0,3,1.6637,1.1092,20,2,21,1,12,4,1,FM
2,1,0,3,0.87,0.4065,20,2,22,1,12,12,0,FM
2,1,1,3,1.7473,0.5509,20,2,23,1,11,5,1,FM
2,0,1,4,1.1124,0.4268,20,2,24,1,11,8,0,FM
2,1,1,4,0.7618,0.2527,20,2,25,1,10,4,1,FM
2,0,0,2,2.329,2.3799,20,2,26,1,10,3,1,FM
2,0,1,2,1.8476,1.2659,20,2,27,1,11,2,0,FM
2,0,0,4,0.9144,0.748,20,2,28,1,10,2,1,FM
2,0,1,3,1.1964,2.1054,20,2,29,1,10,5,0,FM
2,0,0,1,2.4644,1.0693,20,2,30,1,9,4,1,FM
2,0,0,4,1.8936,1.0403,20,2,31,1,9,7,1,FM
2,1,0,4,0.9417,0.3231,20,2,32,1,10,10,0,FM
2,1,0,4,0.8358,0.2403,20,2,33,1,9,6,0,FM
2,1,1,4,1.1951,0.3951,20,2,34,1,8,2,1,FM
2,0,0,4,0.9432,0.2816,20,2,35,1,8,7,1,FM
2,0,1,3,1.9501,1.6593,20,2,36,1,9,2,0,FM
2,0,0,4,0.9635,0.3644,20,2,37,1,8,6,1,FM
2,1,1,4,1.0368,0.2926,20,2,38,1,8,3,1,FM
2,0,1,3,2.0341,0.5522,20,2,39,1,9,6,0,FM
2,0,0,3,0.9589,0.9959,20,2,40,1,8,3,1,FM
2,1,1,4,0.836,0.2402,20,2,41,1,8,1,1,FM
2,0,0,3,1.4285,0.3632,20,2,42,1,9,5,1,FM
2,1,1,4,1.5237,0.4184,20,2,43,1,10,2,1,FM
2,1,1,4,0.8374,0.2735,20,2,44,1,11,11,1,FM
2,0,0,4,0.962,0.2817,20,2,45,1,12,12,1,FM
2,0,0,2,1.968,0.5415,20,2,46,1,12,12,1,FM
2,0,1,4,2.3382,0.4494,20,2,47,1,12,2,0,FM
2,1,1,4,1.7561,0.5112,20,2,48,1,11,4,1,FM
2,1,1,4,1.6483,0.3147,20,2,49,1,11,8,1,FM
2,1,1,4,1.3223,0.9953,20,2,50,1,12,7,1,FM
2,1,1,2,1.6307,0.5721,20,2,51,1,12,6,1,FM
2,1,1,3,1.5873,0.9137,20,2,52,1,12,10,1,FM
2,1,1,4,0.9204,0.3129,20,2,53,1,12,3,1,FM
2,0,1,2,2.1382,0.5233,20,2,54,1,12,11,0,FM
2,0,1,2,2.5775,0.3509,20,2,55,1,11,11,0,FM
2,0,1,4,2.3903,0.3122,20,2,56,1,10,3,0,FM
2,1,1,4,1.07,0.2925,20,2,57,1,9,6,1,FM
2,0,0,3,2.0587,2.0221,20,2,58,1,9,4,1,FM
2,1,1,4,0.6789,0.2401,20,2,59,1,10,6,1,FM
2,0,1,3,1.598,0.3985,20,2,60,1,11,6,0,FM
2,1,1,4,1.1214,0.3128,20,2,61,1,10,6,1,FM
2,1,1,4,0.7528,0.2403,20,2,62,1,10,9,1,FM
2,1,1,4,0.9631,0.242,20,2,63,1,11,7,1,FM
2,1,1,4,1.5487,0.884,20,2,64,1,12,9,1,FM
2,0,1,4,0.9581,0.2837,20,2,65,1,12,6,0,FM
2,0,1,4,0.8471,0.2836,20,2,66,1,11,7,0,FM
2,1,1,4,0.836,0.2414,20,2,67,1,10,6,1,FM
2,0,0,2,1.7779,1.314,20,2,68,1,10,8,1,FM
2,0,1,4,0.8357,0.3031,20,2,69,1,11,3,0,FM
2,1,0,2,2.1478,0.6554,20,2,70,1,10,6,0,FM
2,0,1,3,1.4708,0.52,20,2,71,1,9,3,0,FM
2,1,1,4,1.4699,0.4059,20,2,72,1,8,8,1,FM
2,0,0,4,1.3463,0.5612,20,2,73,1,8,1,1,FM
2,1,1,4,0.826,0.2724,20,2,74,1,9,7,1,FM
2,0,1,4,0.9523,0.3677,20,2,75,1,10,8,0,FM
2,1,0,2,1.8968,0.5094,20,2,76,1,9,3,0,FM
2,1,0,4,0.8777,0.4477,20,2,77,1,8,8,0,FM
2,0,0,2,2.7288,1.246,20,2,78,1,7,2,1,FM
2,0,0,4,1.2277,0.2817,20,2,79,1,7,3,1,FM
2,1,1,4,1.033,0.2923,20,2,80,1,8,4,1,FM
2,1,1,4,0.8897,0.2834,20,2,81,1,9,5,1,FM
2,1,1,3,2.1899,0.4803,20,2,82,1,10,1,1,FM
2,0,0,2,2.9302,1.4688,20,2,83,1,11,3,1,FM
2,0,1,4,0.8042,0.2819,20,2,84,1,12,7,0,FM
2,0,0,2,2.6948,1.4313,20,2,85,1,11,1,1,FM
2,0,0,4,1.164,0.3959,20,2,86,1,11,8,1,FM
2,0,1,3,2.38,0.9964,20,2,87,1,12,1,0,FM
2,0,0,1,2.6513,0.9534,20,2,88,1,11,5,1,FM
2,1,1,4,0.6784,0.2095,20,2,89,1,11,8,1,FM
2,1,1,4,0.6349,0.1678,20,2,90,1,12,7,1,FM
2,1,0,1,2.3798,1.3505,20,2,91,1,12,4,0,FM
2,0,1,2,1.6713,1.504,20,2,92,1,11,6,0,FM
2,0,0,3,0.9627,0.594,20,2,93,1,10,9,1,FM
2,1,1,3,1.0583,0.3122,20,2,94,1,10,1,1,FM
2,0,0,3,2.2544,1.3488,20,2,95,1,11,1,1,FM
2,1,0,2,2.8451,1.6298,20,2,96,1,12,12,0,FM
2,0,0,3,2.7618,1.3533,20,2,97,1,11,8,1,FM
2,0,0,3,0.9415,0.5619,20,2,98,1,11,9,1,FM
2,1,1,3,1.3222,0.4783,20,2,99,1,12,9,1,FM
2,0,1,3,1.8635,0.2724,20,2,100,1,12,4,0,FM
2,1,1,4,0.7937,0.2822,20,2,101,1,11,10,1,FM
2,1,0,2,2.1162,0.3645,20,2,102,1,11,6,0,FM
2,0,0,4,1.0685,0.3216,20,2,103,1,10,7,1,FM
2,1,1,4,0.7521,0.2403,20,2,104,1,10,10,1,FM
2,1,1,2,2.1049,0.3354,20,2,105,1,11,3,1,FM
2,1,1,3,2.4434,1.9805,20,2,106,1,12,4,1,FM
2,0,1,3,2.496,0.6341,20,2,107,1,12,11,0,FM
2,0,1,3,1.672,0.5888,20,2,108,1,11,10,0,FM
2,0,1,2,2.8134,1.3016,20,2,109,1,10,6,0,FM
2,1,1,4,0.8044,0.3955,20,2,110,1,9,5,1,FM
2,0,1,4,0.7731,0.3476,20,2,111,1,9,5,0,FM
2,1,0,3,1.2311,0.2815,20,2,112,1,8,6,0,FM
2,1,1,4,0.7198,0.1988,20,2,113,1,7,6,1,FM
2,0,0,1,2.0736,0.8249,20,2,114,1,7,1,1,FM
2,0,1,4,0.8781,0.2846,20,2,115,1,8,4,0,FM
2,1,1,4,0.9944,0.2405,20,2,116,1,7,3,1,FM
2,0,0,3,0.8467,0.4692,20,2,117,1,7,6,1,FM
2,1,1,4,0.8353,0.3244,20,2,118,1,8,4,1,FM
2,1,1,4,0.8366,0.2832,20,2,119,1,9,6,1,FM
2,1,1,4,0.8781,0.3542,20,2,120,1,10,10,1,FM
3,0,0,4,1.5321,0.5183,21,2,1,1,6,2,1,FM
3,1,1,4,1.205,0.2698,21,2,2,1,6,1,1,FM
3,0,0,4,1.1326,1.4294,21,2,3,1,7,4,1,FM
3,0,0,4,1.1952,0.5916,21,2,4,1,8,1,1,FM
3,1,1,3,1.322,0.5502,21,2,5,1,9,4,1,FM
3,1,1,4,1.5962,0.3952,21,2,6,1,10,2,1,FM
3,0,1,3,1.9495,0.5005,21,2,7,1,11,4,0,FM
3,0,0,2,2.157,0.7462,21,2,8,1,10,9,1,FM
3,1,1,3,1.5231,0.3215,21,2,9,1,10,10,1,FM
3,1,1,4,1.0449,0.24,21,2,10,1,11,7,1,FM
3,0,1,3,1.6068,0.4275,21,2,11,1,12,10,0,FM
3,0,1,2,1.9131,0.4386,21,2,12,1,11,6,0,FM
3,1,0,3,1.8279,0.5507,21,2,13,1,10,3,0,FM
3,1,1,4,0.8879,0.2388,21,2,14,1,9,2,1,FM
3,0,1,3,1.1648,0.3657,21,2,15,1,9,2,0,FM
3,0,0,2,2.27,0.6545,21,2,16,1,8,7,1,FM
3,0,0,4,1.3539,0.6257,21,2,17,1,8,7,1,FM
3,0,0,4,1.1625,0.4367,21,2,18,1,9,1,1,FM
3,0,1,2,1.5971,1.1454,21,2,19,1,10,4,0,FM
3,1,1,3,1.3634,0.717,21,2,20,1,9,8,1,FM
3,0,NaN,1,2.9942,1.888,21,2,21,1,9,2,0,FM
3,1,1,3,1.0056,0.6241,21,2,22,1,8,1,1,FM
3,1,1,3,1.2438,1.1087,21,2,23,1,8,8,1,FM
3,0,0,3,1.2488,1.8964,21,2,24,1,9,8,1,FM
3,1,1,4,1.2056,0.1985,21,2,25,1,10,7,1,FM
3,0,1,3,0.8036,0.4798,21,2,26,1,11,8,0,FM
3,0,1,2,1.6816,0.6642,21,2,27,1,10,3,0,FM
3,0,0,3,1.1206,1.223,21,2,28,1,9,1,1,FM
3,0,1,4,1.4065,0.5909,21,2,29,1,9,6,0,FM
3,0,0,3,1.0903,0.6752,21,2,30,1,8,5,1,FM
3,1,1,4,1.0685,0.7579,21,2,31,1,8,4,1,FM
3,0,1,3,1.763,1.9467,21,2,32,1,9,9,0,FM
3,1,1,4,0.719,0.5212,21,2,33,1,8,1,1,FM
3,0,1,3,1.9983,0.5615,21,2,34,1,8,6,0,FM
3,1,0,3,2.6385,1.9057,21,2,35,1,7,5,0,FM
3,1,1,2,1.1208,0.9129,21,2,36,1,6,5,1,FM
3,1,1,4,0.8882,0.5109,21,2,37,1,6,6,1,FM
3,0,0,4,1.9216,0.6012,21,2,38,1,7,7,1,FM
3,0,0,4,1.4423,0.5493,21,2,39,1,8,3,1,FM
3,0,0,4,1.6394,0.2292,21,2,40,1,9,2,1,FM
3,0,0,3,1.8033,0.7255,21,2,41,1,10,9,1,FM
3,0,1,2,1.8389,0.789,21,2,42,1,11,3,0,FM
3,0,0,2,2.1592,1.306,21,2,43,1,10,1,1,FM
3,0,1,3,1.6808,0.4674,21,2,44,1,10,9,0,FM
3,0,0,3,1.4377,1.8153,21,2,45,1,9,9,1,FM
3,0,0,4,1.7251,1.1926,21,2,46,1,9,1,1,FM
3,0,0,4,1.0462,0.6329,21,2,47,1,10,1,1,FM
3,0,0,3,1.2048,0.4404,21,2,48,1,11,8,1,FM
3,0,0,2,1.4815,0.906,21,2,49,1,12,5,1,FM
3,1,1,4,1.131,0.7038,21,2,50,1,12,12,1,FM
3,1,1,4,0.92,0.1986,21,2,51,1,12,4,1,FM
3,1,1,4,0.8884,0.1568,21,2,52,1,12,6,1,FM
3,0,0,1,1.7545,0.8715,21,2,53,1,12,9,1,FM
3,1,1,2,1.9949,0.9854,21,2,54,1,12,2,1,FM
3,0,1,2,2.5194,0.9133,21,2,55,1,12,10,0,FM
3,1,1,2,1.3164,0.5194,21,2,56,1,11,11,1,FM
3,0,0,3,1.0781,1.0684,21,2,57,1,11,6,1,FM
3,1,0,2,1.248,1.3077,21,2,58,1,12,10,0,FM
3,1,1,2,1.2794,0.48,21,2,59,1,11,5,1,FM
3,0,0,4,0.9198,0.6748,21,2,60,1,11,7,1,FM
3,0,0,4,1.5535,0.4356,21,2,61,1,12,7,1,FM
3,0,0,3,1.2792,0.6334,21,2,62,1,12,1,1,FM
3,1,0,2,1.7237,1.1104,21,2,63,1,12,11,0,FM
3,0,0,3,1.3642,0.9853,21,2,64,1,11,4,1,FM
3,0,1,3,1.9971,0.4674,21,2,65,1,11,11,0,FM
3,1,1,4,1.2791,0.7378,21,2,66,1,10,4,1,FM
3,1,1,3,1.5643,0.311,21,2,67,1,10,7,1,FM
3,1,1,4,1.4059,0.1585,21,2,68,1,11,4,1,FM
3,1,1,4,0.9824,0.1588,21,2,69,1,12,2,1,FM
3,1,0,3,2.8323,1.2231,21,2,70,1,12,4,0,FM
3,0,0,3,0.8677,0.3121,21,2,71,1,11,11,1,FM
3,1,0,1,1.6698,1.7415,21,2,72,1,11,11,0,FM
3,0,0,2,1.5694,0.3121,21,2,73,1,10,9,1,FM
3,1,1,4,0.8042,0.1572,21,2,74,1,10,2,1,FM
3,0,1,3,1.2809,0.3229,21,2,75,1,11,11,0,FM
3,0,1,3,0.8464,0.2818,21,2,76,1,10,8,0,FM
3,1,0,2,1.6282,0.7151,21,2,77,1,9,8,0,FM
3,0,0,2,1.0463,1.5412,21,2,78,1,8,6,1,FM
3,1,1,4,0.8896,0.3229,21,2,79,1,8,3,1,FM
3,0,0,3,1.2789,1.142,21,2,80,1,9,4,1,FM
3,1,1,4,1.1979,0.106,21,2,81,1,10,5,1,FM
3,0,0,2,1.3639,1.6998,21,2,82,1,11,9,1,FM
3,1,1,3,1.0884,0.4889,21,2,83,1,12,1,1,FM
3,0,1,3,1.3849,0.1878,21,2,84,1,12,11,0,FM
3,1,1,3,1.4063,0.706,21,2,85,1,11,5,1,FM
3,1,1,3,1.1734,0.3958,21,2,86,1,11,10,1,FM
3,1,0,2,1.9872,0.9239,21,2,87,1,12,6,0,FM
3,0,0,3,1.0905,0.9436,21,2,88,1,11,6,1,FM
3,0,1,4,2.0808,1.0164,21,2,89,1,11,2,0,FM
3,0,0,3,1.0889,0.5829,21,2,90,1,10,4,1,FM
3,1,1,3,0.9282,1.0387,21,2,91,1,10,2,1,FM
3,1,1,4,0.9412,0.2412,21,2,92,1,11,3,1,FM
3,1,0,2,2.1455,0.8717,21,2,93,1,12,12,0,FM
3,1,1,4,1.1218,0.1675,21,2,94,1,11,7,1,FM
3,1,1,3,1.8388,1.185,21,2,95,1,11,4,1,FM
3,1,1,2,1.6853,0.8099,21,2,96,1,12,12,1,FM
3,0,1,3,1.8391,0.4768,21,2,97,1,12,9,0,FM
3,0,0,4,1.2807,1.2233,21,2,98,1,11,8,1,FM
3,0,1,4,1.1631,0.1568,21,2,99,1,11,7,0,FM
3,0,1,1,1.2688,1.5751,21,2,100,1,10,1,0,FM
3,1,1,4,1.1628,0.3228,21,2,101,1,9,2,1,FM
3,1,1,3,1.8393,0.5079,21,2,102,1,9,6,1,FM
3,0,0,2,1.9975,0.9532,21,2,103,1,10,1,1,FM
3,1,1,4,0.7305,0.4384,21,2,104,1,11,7,1,FM
3,1,0,2,2.4738,0.8275,21,2,105,1,12,4,0,FM
3,0,0,2,1.3318,0.5494,21,2,106,1,11,5,1,FM
3,1,0,2,1.6811,1.6995,21,2,107,1,11,10,0,FM
3,1,1,4,1.2058,0.2509,21,2,108,1,10,7,1,FM
3,1,0,2,2.2002,0.8597,21,2,109,1,10,8,0,FM
3,1,1,4,1.1713,0.4075,21,2,110,1,9,1,1,FM
3,1,1,4,0.8038,0.5505,21,2,111,1,9,5,1,FM
3,1,1,4,0.9303,0.24,21,2,112,1,10,10,1,FM
3,1,1,4,0.8458,0.3201,21,2,113,1,11,2,1,FM
3,1,0,2,1.0913,0.8302,21,2,114,1,12,12,0,FM
3,0,1,2,2.39,1.1823,21,2,115,1,11,5,0,FM
3,1,1,3,0.974,0.6135,21,2,116,1,10,3,1,FM
3,1,1,4,1.0148,0.747,21,2,117,1,10,4,1,FM
3,1,0,2,2.2721,0.9853,21,2,118,1,11,10,0,FM
3,1,1,4,0.8035,0.1355,21,2,119,1,10,6,1,FM
3,0,1,3,1.7489,0.3526,21,2,120,1,10,6,0,FM
4,1,0,3,1.1941,0.6646,23,2,1,1,6,4,0,FM
4,0,0,3,1.1205,0.7151,23,2,2,1,6,5,1,FM
4,1,1,2,1.5703,0.425,23,2,3,1,6,3,1,FM
4,0,0,2,0.8252,0.5292,23,2,4,1,7,2,1,FM
4,0,0,3,0.9338,0.9533,23,2,5,1,8,2,1,FM
4,0,0,2,2.5521,0.394,23,2,6,1,9,1,1,FM
4,0,0,3,1.5327,0.5079,23,2,7,1,10,6,1,FM
4,0,0,1,0.9652,0.8395,23,2,8,1,11,3,1,FM
4,1,1,2,0.8946,0.5186,23,2,9,1,12,2,1,FM
4,1,1,2,1.3221,0.9951,23,2,10,1,12,7,1,FM
4,1,1,1,1.0061,0.8292,23,2,11,1,12,10,1,FM
4,0,0,4,2.2727,0.829,23,2,12,1,12,4,1,FM
4,1,1,2,0.9301,0.6738,23,2,13,1,12,11,1,FM
4,1,1,1,1.0905,0.7881,23,2,14,1,12,5,1,FM
4,0,0,3,1.6406,0.912,23,2,15,1,12,4,1,FM
4,0,0,1,1.0912,0.477,23,2,16,1,12,6,1,FM
4,0,0,2,1.448,2.9634,23,2,17,1,12,12,1,FM
4,0,0,2,2.4306,0.6634,23,2,18,1,12,6,1,FM
4,0,NaN,1,2.9906,1.1012,23,2,19,1,12,6,0,FM
4,0,1,1,1.0161,0.425,23,2,20,1,11,6,0,FM
4,0,0,2,0.9724,0.674,23,2,21,1,10,7,1,FM
4,1,1,2,0.7717,0.5079,23,2,22,1,10,8,1,FM
4,1,1,3,1.132,0.5706,23,2,23,1,11,6,1,FM
4,0,0,4,0.9409,1.1086,23,2,24,1,12,7,1,FM
4,1,NaN,2,2.9983,1.0182,23,2,25,1,12,3,0,FM
4,1,1,4,1.048,0.4769,23,2,26,1,11,4,1,FM
4,1,1,1,1.8284,1.567,23,2,27,1,11,10,1,FM
4,0,0,3,1.0119,0.5183,23,2,28,1,12,4,1,FM
4,0,0,1,2.7923,1.0361,23,2,29,1,12,8,1,FM
4,0,0,2,1.0469,0.8394,23,2,30,1,12,8,1,FM
4,0,0,3,0.9374,0.5183,23,2,31,1,12,1,1,FM
4,1,1,3,0.9304,0.4353,23,2,32,1,12,8,1,FM
4,1,1,2,2.1998,1.1094,23,2,33,1,12,4,1,FM
4,0,0,2,1.2813,1.2642,23,2,34,1,12,5,1,FM
4,1,1,2,1.5983,0.5601,23,2,35,1,12,6,1,FM
4,1,1,1,2.0397,0.3215,23,2,36,1,12,10,1,FM
4,0,1,1,1.9976,0.7152,23,2,37,1,12,9,0,FM
4,0,1,1,2.5166,0.5909,23,2,38,1,11,2,0,FM
4,1,0,2,1.8111,1.1399,23,2,39,1,10,7,0,FM
4,1,1,2,1.0601,0.7151,23,2,40,1,9,1,1,FM
4,0,0,2,1.0158,0.5094,23,2,41,1,9,3,1,FM
4,0,0,4,1.9662,1.0156,23,2,42,1,10,3,1,FM
4,0,1,2,2.1274,0.7163,23,2,43,1,11,7,0,FM
4,1,0,1,1.6814,0.9946,23,2,44,1,10,9,0,FM
4,1,1,NaN,0.9303,2.9931,23,2,45,1,9,2,1,FM
4,1,1,4,0.9433,0.5598,23,2,46,1,9,4,1,FM
4,1,1,2,1.216,0.5394,23,2,47,1,10,1,1,FM
4,1,1,2,1.9244,1.2743,23,2,48,1,11,2,1,FM
4,1,0,1,1.5647,0.4665,23,2,49,1,12,8,0,FM
4,1,1,2,0.9303,0.9545,23,2,50,1,11,1,1,FM
4,0,0,4,1.2831,0.5804,23,2,51,1,11,2,1,FM
4,0,0,3,0.857,0.7904,23,2,52,1,12,1,1,FM
4,0,0,1,1.0151,0.3536,23,2,53,1,12,12,1,FM
4,0,0,4,0.8573,0.4284,23,2,54,1,12,5,1,FM
4,1,1,2,1.6824,1.3467,23,2,55,1,12,9,1,FM
4,1,1,1,1.0576,0.8706,23,2,56,1,12,8,1,FM
4,0,1,2,1.6498,1.0364,23,2,57,1,12,8,0,FM
4,1,0,1,1.2052,0.5907,23,2,58,1,11,8,0,FM
4,1,1,2,1.2163,0.7876,23,2,59,1,10,5,1,FM
4,1,1,2,1.0554,1.2331,23,2,60,1,10,7,1,FM
4,0,0,2,1.3637,0.912,23,2,61,1,11,7,1,FM
4,0,0,3,1.2051,0.9536,23,2,62,1,12,9,1,FM
4,0,0,4,1.1434,0.6324,23,2,63,1,12,7,1,FM
4,1,NaN,1,2.9918,1.524,23,2,64,1,12,6,0,FM
4,0,1,2,1.0048,0.6427,23,2,65,1,11,9,0,FM
4,0,0,3,1.012,0.5916,23,2,66,1,10,4,1,FM
4,0,1,1,1.9135,0.912,23,2,67,1,10,9,0,FM
4,0,0,2,1.3226,0.5185,23,2,68,1,9,5,1,FM
4,1,1,4,0.9,0.4249,23,2,69,1,9,3,1,FM
4,0,0,2,1.5691,0.592,23,2,70,1,10,6,1,FM
4,1,1,3,0.9446,0.6323,23,2,71,1,11,2,1,FM
4,0,NaN,1,2.9975,1.0158,23,2,72,1,12,10,0,FM
4,0,0,3,0.9307,0.5494,23,2,73,1,11,5,1,FM
4,1,0,2,1.2163,2.4039,23,2,74,1,11,6,0,FM
4,0,0,4,1.6071,0.5908,23,2,75,1,10,5,1,FM
4,1,1,3,1.1309,0.6324,23,2,76,1,10,10,1,FM
4,0,0,4,1.1448,0.3564,23,2,77,1,11,10,1,FM
4,1,0,2,0.8461,0.7981,23,2,78,1,12,12,0,FM
4,1,1,2,1.2474,0.5531,23,2,79,1,11,6,1,FM
4,0,0,2,1.6079,0.6706,23,2,80,1,11,7,1,FM
4,1,0,3,1.0959,0.5079,23,2,81,1,12,10,0,FM
4,1,1,2,0.9342,0.9987,23,2,82,1,11,11,1,FM
4,1,1,2,1.0466,0.3651,23,2,83,1,11,4,1,FM
4,1,1,1,1.3252,0.394,23,2,84,1,12,6,1,FM
4,0,1,1,2.6636,1.233,23,2,85,1,12,3,0,FM
4,1,1,3,1.4085,0.8706,23,2,86,1,11,5,1,FM
4,0,0,1,1.2059,1.1499,23,2,87,1,11,2,1,FM
4,0,0,2,1.174,1.0173,23,2,88,1,12,5,1,FM
4,1,1,2,1.1716,0.4354,23,2,89,1,12,11,1,FM
4,0,0,2,0.9305,0.9844,23,2,90,1,12,7,1,FM
4,1,0,2,1.1241,1.0361,23,2,91,1,12,11,0,FM
4,1,1,2,1.7243,0.7565,23,2,92,1,11,1,1,FM
4,1,1,3,0.9311,0.5184,23,2,93,1,11,11,1,FM
4,1,1,2,1.0585,0.5908,23,2,94,1,12,4,1,FM
4,0,0,3,1.2788,0.7979,23,2,95,1,12,7,1,FM
4,1,0,1,2.4731,0.9536,23,2,96,1,12,9,0,FM
4,0,1,2,1.755,0.9845,23,2,97,1,11,3,0,FM
4,0,0,4,0.772,0.7877,23,2,98,1,10,4,1,FM
4,0,0,4,1.0994,0.7049,23,2,99,1,10,7,1,FM
4,1,1,3,1.2056,1.0471,23,2,100,1,11,6,1,FM
4,1,1,3,1.7984,0.9326,23,2,101,1,12,2,1,FM
4,1,1,2,1.5654,0.8913,23,2,102,1,12,3,1,FM
4,1,1,3,0.8996,0.3941,23,2,103,1,12,2,1,FM
4,1,1,4,0.8567,0.4768,23,2,104,1,12,4,1,FM
4,0,1,2,0.8457,0.7151,23,2,105,1,12,1,0,FM
4,0,NaN,1,2.9954,1.4422,23,2,106,1,11,4,0,FM
4,0,0,2,0.9742,0.7877,23,2,107,1,10,8,1,FM
4,0,0,2,1.3326,0.7144,23,2,108,1,10,10,1,FM
4,1,1,2,1.0364,0.3939,23,2,109,1,11,7,1,FM
4,1,1,2,1.6828,0.5206,23,2,110,1,12,11,1,FM
4,1,0,1,1.1745,1.2125,23,2,111,1,12,2,0,FM
4,1,1,4,0.8143,0.5909,23,2,112,1,11,1,1,FM
4,0,0,2,1.1629,1.9092,23,2,113,1,11,5,1,FM
4,1,1,4,0.7731,0.4044,23,2,114,1,12,6,1,FM
4,1,1,2,1.1209,0.3111,23,2,115,1,12,12,1,FM
4,0,0,3,1.1416,1.0359,23,2,116,1,12,6,1,FM
4,0,0,2,1.0793,0.6323,23,2,117,1,12,8,1,FM
4,0,0,2,2.2724,1.5434,23,2,118,1,12,6,1,FM
4,1,1,4,0.8569,0.4043,23,2,119,1,12,4,1,FM
4,0,0,3,1.1219,0.5907,23,2,120,1,12,5,1,FM
5,0,0,1,1.3399,0.9368,20,2,1,1,6,4,1,FM
5,0,1,3,1.5443,1.7433,20,2,2,1,6,1,0,FM
5,1,1,4,1.0803,0.8636,20,2,3,1,5,5,1,FM
5,1,1,4,1.5183,0.9561,20,2,4,1,5,5,1,FM
5,0,0,1,2.4243,0.947,20,2,5,1,6,1,1,FM
5,0,0,1,1.4813,1.0695,20,2,6,1,7,2,1,FM
5,0,1,3,2.451,1.4223,20,2,7,1,8,4,0,FM
5,0,0,1,2.0344,0.7166,20,2,8,1,7,1,1,FM
5,1,1,4,1.0772,0.9152,20,2,9,1,7,2,1,FM
5,1,1,4,0.9621,0.8523,20,2,10,1,8,7,1,FM
5,0,0,1,1.4707,0.8748,20,2,11,1,9,4,1,FM
5,0,0,1,1.7875,0.8754,20,2,12,1,10,9,1,FM
5,0,1,3,1.957,0.894,20,2,13,1,11,2,0,FM
5,0,0,1,1.7458,1.184,20,2,14,1,10,7,1,FM
5,1,1,3,1.4813,0.9893,20,2,15,1,10,2,1,FM
5,1,1,4,1.7819,0.9163,20,2,16,1,11,5,1,FM
5,0,0,1,1.8614,2.1782,20,2,17,1,12,3,1,FM
5,1,0,1,1.4709,0.8231,20,2,18,1,12,5,0,FM
5,1,0,1,1.8723,1.0235,20,2,19,1,11,9,0,FM
5,1,1,4,1.4633,0.9072,20,2,20,1,10,6,1,FM
5,1,1,4,1.8411,1.0072,20,2,21,1,10,2,1,FM
5,1,1,2,2.9406,1.2563,20,2,22,1,11,9,1,FM
5,0,0,1,2.4656,0.7061,20,2,23,1,12,9,1,FM
5,0,0,1,2.6516,0.7907,20,2,24,1,12,11,1,FM
5,0,0,1,1.4702,0.9474,20,2,25,1,12,9,1,FM
5,0,1,2,2.5746,1.5356,20,2,26,1,12,11,0,FM
5,0,0,1,1.9456,0.8747,20,2,27,1,11,6,1,FM
5,1,1,3,1.3135,1.0187,20,2,28,1,11,8,1,FM
5,0,0,1,1.3485,1.113,20,2,29,1,12,4,1,FM
5,1,1,4,1.0367,1.144,20,2,30,1,12,7,1,FM
5,1,0,1,1.5547,0.9366,20,2,31,1,12,8,0,FM
5,1,1,2,1.5146,1.3403,20,2,32,1,11,7,1,FM
5,0,0,1,1.6713,1.0821,20,2,33,1,11,4,1,FM
5,0,1,2,2.7371,0.9906,20,2,34,1,12,11,0,FM
5,0,0,1,1.6818,1.1118,20,2,35,1,11,8,1,FM
5,1,1,4,0.9989,0.9149,20,2,36,1,11,5,1,FM
5,1,1,4,1.0374,0.947,20,2,37,1,12,4,1,FM
5,0,0,1,1.2269,0.9871,20,2,38,1,12,5,1,FM
5,1,1,4,1.0367,1.0714,20,2,39,1,12,9,1,FM
5,0,0,1,0.9685,0.998,20,2,40,1,12,5,1,FM
5,1,0,1,1.745,0.9056,20,2,41,1,12,3,0,FM
5,1,1,2,1.3753,1.3917,20,2,42,1,11,4,1,FM
5,1,1,4,0.8354,0.9887,20,2,43,1,11,5,1,FM
5,1,1,4,1.2334,1.0008,20,2,44,1,12,9,1,FM
5,0,0,1,1.4703,0.9051,20,2,45,1,12,8,1,FM
5,0,0,1,0.9945,0.8331,20,2,46,1,12,6,1,FM
5,0,NaN,1,2.9937,0.8762,20,2,47,1,12,8,0,FM
5,0,0,1,1.5125,0.9146,20,2,48,1,11,7,1,FM
5,0,0,1,0.9674,0.9873,20,2,49,1,11,10,1,FM
5,0,0,1,1.8307,0.8734,20,2,50,1,12,3,1,FM
5,0,0,1,0.919,0.9453,20,2,51,1,12,7,1,FM
5,1,1,4,0.9625,0.9453,20,2,52,1,12,2,1,FM
5,0,0,1,1.2765,0.9149,20,2,53,1,12,6,1,FM
5,0,1,2,1.8347,1.3099,20,2,54,1,12,3,0,FM
5,0,1,4,0.9626,0.9974,20,2,55,1,11,3,0,FM
5,1,1,4,1.1957,1.0286,20,2,56,1,10,1,1,FM
5,0,0,1,0.8784,0.9458,20,2,57,1,10,3,1,FM
5,1,1,3,1.1637,1.1733,20,2,58,1,11,10,1,FM
5,1,1,4,0.963,0.9443,20,2,59,1,12,12,1,FM
5,1,1,3,1.2063,0.9874,20,2,60,1,12,7,1,FM
5,0,1,2,1.9041,1.0702,20,2,61,1,12,11,0,FM
5,0,0,1,1.3754,0.8732,20,2,62,1,11,10,1,FM
5,1,1,4,0.8149,0.9464,20,2,63,1,11,1,1,FM
5,1,0,1,1.5656,0.9874,20,2,64,1,12,11,0,FM
5,0,0,1,0.9311,0.8829,20,2,65,1,11,6,1,FM
5,0,0,1,1.0899,0.9579,20,2,66,1,11,10,1,FM
5,1,1,4,1.0473,1.03,20,2,67,1,12,8,1,FM
5,0,0,1,1.3231,0.9976,20,2,68,1,12,4,1,FM
5,1,1,4,1.2859,0.9146,20,2,69,1,12,8,1,FM
5,1,1,4,0.9735,0.9561,20,2,70,1,12,2,1,FM
5,1,1,4,1.1212,0.9979,20,2,71,1,12,9,1,FM
5,0,0,1,0.8056,1.0392,20,2,72,1,12,5,1,FM
5,1,0,1,1.7245,0.8723,20,2,73,1,12,12,0,FM
5,1,1,4,1.3752,1.1367,20,2,74,1,11,6,1,FM
5,1,1,4,1.0379,0.9043,20,2,75,1,11,1,1,FM
5,1,1,4,0.7406,0.9042,20,2,76,1,12,4,1,FM
5,1,1,4,0.8884,0.8947,20,2,77,1,12,8,1,FM
5,0,0,1,0.815,0.9455,20,2,78,1,12,8,1,FM
5,1,1,4,1.5234,1.1127,20,2,79,1,12,1,1,FM
5,0,0,1,1.3646,0.9044,20,2,80,1,12,11,1,FM
5,1,1,4,1.2392,0.8641,20,2,81,1,12,6,1,FM
5,0,0,1,0.9626,0.8737,20,2,82,1,12,4,1,FM
5,0,0,1,1.0371,0.9875,20,2,83,1,12,1,1,FM
5,0,0,1,1.2374,1.2545,20,2,84,1,12,11,1,FM
5,1,1,3,1.0097,0.9869,20,2,85,1,12,2,1,FM
5,1,1,4,1.2799,0.9784,20,2,86,1,12,6,1,FM
5,0,0,1,0.6987,1.0194,20,2,87,1,12,2,1,FM
5,0,0,1,1.1215,1.2372,20,2,88,1,12,4,1,FM
5,0,0,1,0.7722,0.861,20,2,89,1,12,3,1,FM
5,1,1,3,1.5661,0.9457,20,2,90,1,12,5,1,FM
5,0,0,1,1.1638,1.0709,20,2,91,1,12,2,1,FM
5,0,0,1,0.8038,0.9872,20,2,92,1,12,4,1,FM
5,0,0,1,0.8043,0.9063,20,2,93,1,12,8,1,FM
5,1,1,4,0.9738,1.0603,20,2,94,1,12,4,1,FM
5,0,0,1,0.7321,1.3792,20,2,95,1,12,6,1,FM
5,1,1,4,2.0307,1.0609,20,2,96,1,12,6,1,FM
5,1,1,4,1.0053,1.0262,20,2,97,1,12,1,1,FM
5,0,1,2,2.903,1.5362,20,2,98,1,12,3,0,FM
5,0,0,1,0.8467,1.0301,20,2,99,1,11,3,1,FM
5,1,1,3,1.2021,0.9984,20,2,100,1,11,8,1,FM
5,1,0,1,1.2488,0.9467,20,2,101,1,12,3,0,FM
5,1,1,3,1.6078,0.8196,20,2,102,1,11,3,1,FM
5,1,1,3,2.19,0.9859,20,2,103,1,11,1,1,FM
5,1,1,3,1.0483,0.9577,20,2,104,1,12,8,1,FM
5,1,1,4,1.407,0.8733,20,2,105,1,12,2,1,FM
5,1,1,3,0.8885,0.9467,20,2,106,1,12,5,1,FM
5,1,1,2,2.6892,1.1547,20,2,107,1,12,12,1,FM
5,1,1,4,0.9312,0.5417,20,2,108,1,12,4,1,FM
5,1,1,4,0.994,0.6648,20,2,109,1,12,5,1,FM
5,1,0,1,2.3977,0.6674,20,2,110,1,12,2,0,FM
5,0,0,1,0.7727,0.5934,20,2,111,1,11,1,1,FM
5,0,1,2,2.4445,1.126,20,2,112,1,11,6,0,FM
5,1,1,4,0.7907,0.6599,20,2,113,1,10,10,1,FM
5,1,1,4,0.699,0.5358,20,2,114,1,10,5,1,FM
5,0,1,2,1.7261,0.6188,20,2,115,1,11,11,0,FM
5,0,0,1,0.6669,0.5429,20,2,116,1,10,9,1,FM
5,0,0,1,1.0807,0.5937,20,2,117,1,10,2,1,FM
5,0,0,1,0.7407,0.6244,20,2,118,1,11,10,1,FM
5,1,1,3,0.9635,0.9578,20,2,119,1,12,2,1,FM
5,0,0,1,0.7728,0.666,20,2,120,1,12,7,1,FM
6,0,0,2,1.609,1.6314,21,2,1,1,6,6,1,FM
6,0,0,2,1.5477,1.0814,21,2,2,1,6,3,1,FM
6,0,0,3,2.311,1.9088,21,2,3,1,7,3,1,FM
6,0,1,2,1.8336,1.8999,21,2,4,1,8,4,0,FM
6,0,0,1,2.1168,0.7014,21,2,5,1,7,2,1,FM
6,0,0,1,1.7571,1.1106,21,2,6,1,7,5,1,FM
6,1,1,2,1.7551,2.2106,21,2,7,1,8,4,1,FM
6,0,0,2,1.8414,0.5938,21,2,8,1,9,6,1,FM
6,1,1,2,2.0746,0.9461,21,2,9,1,10,5,1,FM
6,1,0,2,1.7154,0.7309,21,2,10,1,11,2,0,FM
6,0,1,2,1.2068,0.9042,21,2,11,1,10,6,0,FM
6,0,NaN,1,3,0.6058,21,2,12,1,9,7,0,FM
6,0,1,1,1.8838,0.7496,21,2,13,1,8,8,0,FM
6,1,1,2,2.1575,1.02,21,2,14,1,7,6,1,FM
6,1,1,2,1.8411,0.9351,21,2,15,1,7,4,1,FM
6,0,0,3,1.5562,1.0322,21,2,16,1,8,4,1,FM
6,0,1,2,2.275,0.6261,21,2,17,1,9,8,0,FM
6,1,1,2,1.6929,0.4677,21,2,18,1,8,5,1,FM
6,0,NaN,2,2.9951,1.2812,21,2,19,1,8,6,0,FM
6,0,0,2,2.392,1.3394,21,2,20,1,7,7,1,FM
6,0,1,2,2.5321,0.6338,21,2,21,1,7,2,0,FM
6,1,1,2,1.9626,0.8134,21,2,22,1,6,1,1,FM
6,1,1,3,1.2863,0.7097,21,2,23,1,6,4,1,FM
6,1,1,3,1.7936,0.7599,21,2,24,1,7,4,1,FM
6,0,0,3,1.8002,0.7093,21,2,25,1,8,1,1,FM
6,1,1,2,2.4318,1.072,21,2,26,1,9,7,1,FM
6,0,NaN,2,2.9948,0.968,21,2,27,1,10,3,0,FM
6,0,0,2,1.9602,0.5447,21,2,28,1,9,2,1,FM
6,0,1,2,1.3973,0.3985,21,2,29,1,9,7,0,FM
6,0,1,2,2.8251,0.3874,21,2,30,1,8,7,0,FM
6,1,1,2,1.514,0.3541,21,2,31,1,7,6,1,FM
6,0,0,1,2.1157,0.749,21,2,32,1,7,3,1,FM
6,0,1,1,1.916,0.7181,21,2,33,1,8,6,0,FM
6,0,0,1,1.398,0.6754,21,2,34,1,7,3,1,FM
6,0,1,2,1.7995,1.0681,21,2,35,1,7,3,0,FM
6,0,0,2,1.7678,1.0906,21,2,36,1,6,3,1,FM
6,1,0,1,2.001,0.4783,21,2,37,1,6,5,0,FM
6,1,1,3,1.863,0.9029,21,2,38,1,5,3,1,FM
6,1,1,2,2.0641,0.6358,21,2,39,1,5,2,1,FM
6,1,1,2,1.1646,0.9129,21,2,40,1,6,1,1,FM
6,1,1,3,1.0902,1.2571,21,2,41,1,7,5,1,FM
6,1,1,3,1.1258,0.8547,21,2,42,1,8,1,1,FM
6,0,1,2,1.8733,1.4233,21,2,43,1,9,7,0,FM
6,1,1,2,1.4923,1.8881,21,2,44,1,8,3,1,FM
6,0,1,3,1.3231,1.9953,21,2,45,1,8,1,0,FM
6,0,0,4,1.9268,1.2608,21,2,46,1,7,1,1,FM
6,1,1,2,1.9161,1.3086,21,2,47,1,7,3,1,FM
6,0,0,2,1.323,0.5105,21,2,48,1,8,1,1,FM
6,0,0,3,1.0966,0.4597,21,2,49,1,9,7,1,FM
6,0,0,2,2.0864,0.6642,21,2,50,1,10,5,1,FM
6,1,1,2,1.5055,0.8614,21,2,51,1,11,10,1,FM
6,1,1,3,1.4399,1.0186,21,2,52,1,12,11,1,FM
6,1,1,3,1.4923,0.345,21,2,53,1,12,8,1,FM
6,1,1,3,1.0731,0.3244,21,2,54,1,12,1,1,FM
6,0,0,3,1.7891,1.0274,21,2,55,1,12,6,1,FM
6,0,1,2,0.927,0.9568,21,2,56,1,12,11,0,FM
6,1,NaN,3,2.99,1.2161,21,2,57,1,11,7,0,FM
6,0,1,2,1.1397,0.6449,21,2,58,1,10,9,0,FM
6,1,0,2,1.526,0.9454,21,2,59,1,9,6,0,FM
6,1,1,2,2.4239,0.8006,21,2,60,1,8,3,1,FM
6,0,0,2,1.1639,0.874,21,2,61,1,8,3,1,FM
6,1,0,2,1.206,0.4071,21,2,62,1,9,3,0,FM
6,1,1,2,1.4088,0.885,21,2,63,1,8,7,1,FM
6,1,1,3,1.0458,0.8326,21,2,64,1,8,1,1,FM
6,1,1,3,0.9636,0.3569,21,2,65,1,9,7,1,FM
6,1,1,3,1.0039,0.2831,21,2,66,1,10,8,1,FM
6,1,0,1,1.9798,0.6231,21,2,67,1,11,5,0,FM
6,0,0,3,0.9318,0.9871,21,2,68,1,10,1,1,FM
6,1,1,3,1.2069,0.4726,21,2,69,1,10,6,1,FM
6,0,0,3,1.45,0.4277,21,2,70,1,11,2,1,FM
6,1,1,2,2.4768,0.8938,21,2,71,1,12,6,1,FM
6,1,1,3,1.4401,0.7911,21,2,72,1,12,5,1,FM
6,0,0,3,1.2915,0.5907,21,2,73,1,12,8,1,FM
6,1,1,2,1.7915,0.4683,21,2,74,1,12,10,1,FM
6,1,1,3,1.7249,0.6663,21,2,75,1,12,4,1,FM
6,1,1,2,1.9178,0.4999,21,2,76,1,12,7,1,FM
6,0,0,3,1.2503,0.9987,21,2,77,1,12,12,1,FM
6,0,0,2,2.6244,0.874,21,2,78,1,12,2,1,FM
6,0,1,2,1.122,0.3969,21,2,79,1,12,12,0,FM
6,1,1,2,1.6832,0.5108,21,2,80,1,11,7,1,FM
6,0,1,2,1.6829,0.2707,21,2,81,1,11,5,0,FM
6,1,1,2,1.4403,0.2815,21,2,82,1,10,3,1,FM
6,0,1,2,1.2065,0.2296,21,2,83,1,10,3,0,FM
6,1,1,3,1.164,0.3954,21,2,84,1,9,2,1,FM
6,0,1,2,1.0374,0.3543,21,2,85,1,9,3,0,FM
6,1,1,2,1.3654,0.0849,21,2,86,1,8,7,1,FM
6,1,1,2,1.0055,0.3245,21,2,87,1,8,8,1,FM
6,0,1,2,1.1142,0.2834,21,2,88,1,9,8,0,FM
6,1,1,3,1.0583,1.1426,21,2,89,1,8,1,1,FM
6,0,0,3,1.1612,0.9877,21,2,90,1,8,6,1,FM
6,1,0,2,1.9579,1.069,21,2,91,1,9,2,0,FM
6,0,1,3,1.2491,0.5108,21,2,92,1,8,6,0,FM
6,0,0,3,1.0415,0.6879,21,2,93,1,7,1,1,FM
6,0,0,3,1.5672,0.5093,21,2,94,1,7,7,1,FM
6,0,1,3,1.3975,1.4537,21,2,95,1,8,2,0,FM
6,0,1,3,1.1744,0.5525,21,2,96,1,7,2,0,FM
6,0,0,3,1.2884,0.4798,21,2,97,1,6,1,1,FM
6,1,1,3,1.0906,0.4276,21,2,98,1,6,6,1,FM
6,0,0,3,1.0801,0.3649,21,2,99,1,7,1,1,FM
6,1,1,3,1.0796,0.3982,21,2,100,1,8,4,1,FM
6,1,1,2,1.313,0.5124,21,2,101,1,9,3,1,FM
6,0,0,3,1.3277,0.3554,21,2,102,1,10,6,1,FM
6,1,1,3,1.3275,0.8397,21,2,103,1,11,3,1,FM
6,0,0,2,2.1057,0.4358,21,2,104,1,12,11,1,FM
6,0,0,2,1.6828,0.5199,21,2,105,1,12,3,1,FM
6,1,1,3,1.1214,0.4382,21,2,106,1,12,6,1,FM
6,1,1,3,1.0794,0.3136,21,2,107,1,12,6,1,FM
6,0,0,3,1.2074,0.3554,21,2,108,1,12,12,1,FM
6,1,1,2,1.4293,0.3955,21,2,109,1,12,1,1,FM
6,1,1,3,1.2029,0.9981,21,2,110,1,12,7,1,FM
6,1,1,2,1.1598,0.5093,21,2,111,1,12,3,1,FM
6,0,0,3,1.2028,0.5129,21,2,112,1,12,8,1,FM
6,1,1,3,0.9947,0.3555,21,2,113,1,12,8,1,FM
6,1,1,3,0.9628,0.2816,21,2,114,1,12,7,1,FM
6,1,1,3,2.2858,0.5497,21,2,115,1,12,11,1,FM
6,0,1,2,0.9318,0.5095,21,2,116,1,12,4,0,FM
6,1,1,2,1.0375,0.323,21,2,117,1,11,5,1,FM
6,1,1,3,0.9947,0.2814,21,2,118,1,11,6,1,FM
6,0,1,2,1.9895,0.437,21,2,119,1,12,3,0,FM
6,1,1,2,1.8409,0.3772,21,2,120,1,11,2,1,FM
7,0,0,3,0.7046,0.3538,21,2,1,1,6,2,1,FM
7,1,1,3,0.9626,0.4054,21,2,2,1,6,2,1,FM
7,1,1,2,1.3437,0.3141,21,2,3,1,7,4,1,FM
7,1,0,1,1.4395,1.2273,21,2,4,1,8,5,0,FM
7,1,1,2,1.6645,0.3976,21,2,5,1,7,2,1,FM
7,1,1,4,0.9598,1.9407,21,2,6,1,7,3,1,FM
7,0,0,4,1.0472,0.3537,21,2,7,1,8,8,1,FM
7,0,0,1,0.51,0.3667,21,2,8,1,9,4,1,FM
7,0,0,3,0.7622,0.3554,21,2,9,1,10,5,1,FM
7,1,1,2,1.9044,0.908,21,2,10,1,11,9,1,FM
7,1,1,3,2.0315,1.3621,21,2,11,1,12,9,1,FM
7,1,1,3,0.9076,2.8939,21,2,12,1,12,9,1,FM
7,0,0,3,0.8364,0.3559,21,2,13,1,12,10,1,FM
7,0,0,3,1.0377,1.0271,21,2,14,1,12,12,1,FM
7,1,1,3,1.545,0.7078,21,2,15,1,12,2,1,FM
7,0,0,4,0.7938,1.5888,21,2,16,1,12,8,1,FM
7,1,1,4,0.8677,0.3559,21,2,17,1,12,7,1,FM
7,1,1,2,1.1188,0.3973,21,2,18,1,12,3,1,FM
7,0,1,2,1.1081,0.3447,21,2,19,1,12,10,0,FM
7,0,0,2,1.1959,0.6354,21,2,20,1,11,2,1,FM
7,0,1,3,1.0198,1.0307,21,2,21,1,11,5,0,FM
7,1,1,3,0.8678,1.3103,21,2,22,1,10,4,1,FM
7,1,1,4,0.7952,0.397,21,2,23,1,10,1,1,FM
7,1,1,3,0.9629,0.5125,21,2,24,1,11,2,1,FM
7,1,1,3,0.8193,0.4294,21,2,25,1,12,8,1,FM
7,1,0,2,1.6295,1.0693,21,2,26,1,12,11,0,FM
7,0,1,3,0.8361,0.5666,21,2,27,1,11,3,0,FM
7,1,1,3,2.1005,0.5726,21,2,28,1,10,10,1,FM
7,1,0,3,0.8778,0.3972,21,2,29,1,10,2,0,FM
7,0,1,3,0.8788,0.5634,21,2,30,1,9,2,0,FM
7,1,1,2,0.7518,0.6245,21,2,31,1,8,4,1,FM
7,0,0,3,0.8682,0.48,21,2,32,1,8,3,1,FM
7,0,0,3,0.7532,0.4799,21,2,33,1,9,5,1,FM
7,0,0,2,1.5133,0.6355,21,2,34,1,10,4,1,FM
7,1,1,4,0.72,0.6661,21,2,35,1,11,6,1,FM
7,0,0,2,1.0794,0.4689,21,2,36,1,12,12,1,FM
7,1,1,4,0.837,0.6354,21,2,37,1,12,7,1,FM
7,1,1,3,0.7836,1.6207,21,2,38,1,12,7,1,FM
7,0,0,2,1.4627,0.7597,21,2,39,1,12,3,1,FM
7,0,0,2,1.073,0.4695,21,2,40,1,12,9,1,FM
7,1,1,4,0.9518,0.4388,21,2,41,1,12,3,1,FM
7,0,1,2,1.0376,0.4376,21,2,42,1,12,12,0,FM
7,0,0,2,1.8652,0.8323,21,2,43,1,11,4,1,FM
7,0,1,2,1.1748,0.3953,21,2,44,1,11,1,0,FM
7,1,1,2,0.8684,0.4385,21,2,45,1,10,10,1,FM
7,0,1,2,1.3867,0.3968,21,2,46,1,10,7,0,FM
7,1,1,2,0.9529,0.3557,21,2,47,1,9,6,1,FM
7,1,1,2,0.9109,0.3355,21,2,48,1,9,4,1,FM
7,1,1,3,0.7216,0.5938,21,2,49,1,10,4,1,FM
7,1,1,2,0.7196,0.2929,21,2,50,1,11,11,1,FM
7,1,0,1,0.8362,0.3449,21,2,51,1,12,6,0,FM
7,0,0,2,0.9575,0.3987,21,2,52,1,11,10,1,FM
7,1,1,2,0.9945,0.5123,21,2,53,1,11,1,1,FM
7,1,1,2,0.593,0.3264,21,2,54,1,12,4,1,FM
7,0,0,4,0.7617,0.4802,21,2,55,1,12,6,1,FM
7,0,0,2,1.1532,1.9418,21,2,56,1,12,1,1,FM
7,1,1,4,0.8256,0.345,21,2,57,1,12,7,1,FM
7,1,0,1,1.9151,0.459,21,2,58,1,12,9,0,FM
7,0,1,2,0.8419,0.4478,21,2,59,1,11,2,0,FM
7,1,1,2,0.8755,0.397,21,2,60,1,10,3,1,FM
7,0,0,4,0.7522,0.3973,21,2,61,1,10,3,1,FM
7,0,0,2,0.8362,0.3551,21,2,62,1,11,8,1,FM
7,0,0,4,0.6781,0.3556,21,2,63,1,12,6,1,FM
7,0,0,2,0.8362,0.3646,21,2,64,1,12,4,1,FM
7,0,0,3,0.9525,0.4678,21,2,65,1,12,8,1,FM
7,1,1,2,0.7593,1.04,21,2,66,1,12,8,1,FM
7,1,1,2,1.069,0.3142,21,2,67,1,12,8,1,FM
7,0,0,4,0.8054,1.0704,21,2,68,1,12,8,1,FM
7,0,0,4,0.8361,0.3854,21,2,69,1,12,3,1,FM
7,0,0,1,0.8682,0.7908,21,2,70,1,12,7,1,FM
7,1,1,2,0.8896,0.4279,21,2,71,1,12,5,1,FM
7,0,0,3,0.7199,0.3553,21,2,72,1,12,5,1,FM
7,1,1,4,0.7515,0.6677,21,2,73,1,12,1,1,FM
7,1,0,1,0.3283,0.2708,21,2,74,1,12,10,0,FM
7,1,1,2,0.72,0.231,21,2,75,1,11,3,1,FM
7,0,0,3,0.9516,0.4387,21,2,76,1,11,8,1,FM
7,0,0,2,1.3969,0.3865,21,2,77,1,12,2,1,FM
7,0,0,3,0.6028,0.4592,21,2,78,1,12,3,1,FM
7,0,0,4,0.6047,0.3552,21,2,79,1,12,3,1,FM
7,1,1,4,0.8359,0.314,21,2,80,1,12,5,1,FM
7,0,1,2,1.1113,0.3231,21,2,81,1,12,7,0,FM
7,0,0,2,1.1864,0.366,21,2,82,1,11,2,1,FM
7,1,1,4,0.868,0.3126,21,2,83,1,11,2,1,FM
7,1,1,2,2.4225,1.8577,21,2,84,1,12,10,1,FM
7,0,NaN,1,2.991,0.7518,21,2,85,1,12,5,0,FM
7,1,1,2,0.9527,0.3144,21,2,86,1,11,6,1,FM
7,0,0,4,0.8257,0.3142,21,2,87,1,11,7,1,FM
7,0,0,3,0.7618,0.3677,21,2,88,1,12,7,1,FM
7,0,1,2,0.8265,0.9565,21,2,89,1,12,3,0,FM
7,0,0,3,0.7937,0.314,21,2,90,1,11,4,1,FM
7,1,1,3,0.7625,0.3862,21,2,91,1,11,5,1,FM
7,1,0,1,0.3977,0.3541,21,2,92,1,12,5,0,FM
7,1,1,3,1.1113,0.4277,21,2,93,1,11,3,1,FM
7,1,0,1,1.3543,0.3542,21,2,94,1,11,7,0,FM
7,0,0,3,1.545,0.3989,21,2,95,1,10,7,1,FM
7,1,1,4,0.995,0.4711,21,2,96,1,10,7,1,FM
7,1,NaN,2,2.9995,1.2284,21,2,97,1,11,5,0,FM
7,1,1,3,0.7199,0.7089,21,2,98,1,10,8,1,FM
7,1,1,3,0.7623,0.3444,21,2,99,1,10,8,1,FM
7,0,0,3,0.9911,0.3971,21,2,100,1,11,6,1,FM
7,0,0,3,0.9897,0.4389,21,2,101,1,12,10,1,FM
7,0,0,3,0.7945,0.3955,21,2,102,1,12,4,1,FM
7,0,0,3,0.7624,0.4688,21,2,103,1,12,7,1,FM
7,0,1,2,1.2701,0.3967,21,2,104,1,12,3,0,FM
7,0,0,3,0.6771,0.4932,21,2,105,1,11,5,1,FM
7,0,0,4,0.7195,0.5108,21,2,106,1,11,1,1,FM
7,1,1,4,1.154,0.482,21,2,107,1,12,1,1,FM
7,0,0,3,0.7167,0.3881,21,2,108,1,12,10,1,FM
7,0,0,4,1.0376,0.3555,21,2,109,1,12,8,1,FM
7,0,1,3,1.0274,0.3142,21,2,110,1,12,2,0,FM
7,1,1,2,2.1059,0.6479,21,2,111,1,11,4,1,FM
7,0,0,3,0.8796,0.3861,21,2,112,1,11,7,1,FM
7,0,0,2,0.8369,1.5041,21,2,113,1,12,4,1,FM
7,1,1,4,0.762,0.3572,21,2,114,1,12,4,1,FM
7,1,1,3,1.1222,0.6246,21,2,115,1,12,4,1,FM
7,1,0,1,0.8738,0.3957,21,2,116,1,12,9,0,FM
7,0,0,2,0.8755,0.7197,21,2,117,1,11,7,1,FM
7,1,1,3,0.8792,0.4696,21,2,118,1,11,8,1,FM
7,1,1,3,0.8787,0.9477,21,2,119,1,12,9,1,FM
7,1,1,2,0.8049,0.3572,21,2,120,1,12,1,1,FM
8,0,1,4,1.1005,1.183,20,1,1,1,6,1,0,FM
8,1,0,3,1.0059,0.9163,20,1,2,1,6,5,0,FM
8,1,0,3,1.0162,0.9559,20,1,3,1,5,4,0,FM
8,0,1,3,0.995,0.769,20,1,4,1,4,1,0,FM
8,0,1,3,1.0058,0.6865,20,1,5,1,3,3,0,FM
8,0,1,3,0.8367,0.7583,20,1,6,1,2,1,0,FM
8,0,1,3,1.5558,0.4365,20,1,7,1,2,2,0,FM
8,1,0,3,0.5296,0.3542,20,1,8,1,2,1,0,FM
8,0,1,3,0.9322,0.24,20,1,9,1,2,1,0,FM
8,0,1,2,0.9654,0.6971,20,1,10,1,2,1,0,FM
8,0,1,3,1.4818,0.468,20,1,11,1,2,2,0,FM
8,0,1,3,0.8152,0.5095,20,1,12,1,2,2,0,FM
8,0,1,3,0.9745,0.3537,20,1,13,1,2,1,0,FM
8,1,0,3,0.9633,0.2904,20,1,14,1,2,1,0,FM
8,0,1,3,1.1619,0.5303,20,1,15,1,2,1,0,FM
8,1,0,3,0.8046,0.3528,20,1,16,1,2,2,0,FM
8,0,1,3,1.3334,0.4064,20,1,17,1,2,2,0,FM
8,1,0,3,1.006,0.6235,20,1,18,1,2,1,0,FM
8,1,0,3,0.9204,0.6663,20,1,19,1,2,2,0,FM
8,1,0,3,0.9315,0.3645,20,1,20,1,2,1,0,FM
8,0,1,3,0.8046,0.323,20,1,21,1,2,1,0,FM
8,0,1,3,0.847,0.5089,20,1,22,1,2,1,0,FM
8,0,1,3,1.4393,0.6339,20,1,23,1,2,1,0,FM
8,0,1,4,0.8895,0.7482,20,1,24,1,2,2,0,FM
8,0,1,4,0.9635,0.3648,20,1,25,1,2,1,0,FM
8,1,0,4,1.4395,0.3954,20,1,26,1,2,1,0,FM
8,0,1,4,0.8895,0.5196,20,1,27,1,2,2,0,FM
8,1,0,4,2.709,0.4255,20,1,28,1,2,1,0,FM
8,0,1,3,0.8523,1.7843,20,1,29,1,2,2,0,FM
8,1,0,3,0.9627,0.4257,20,1,30,1,2,2,0,FM
8,0,0,1,1.0906,0.9438,20,1,31,1,2,1,1,FM
8,1,0,3,0.9735,1.3072,20,1,32,1,2,2,0,FM
8,0,1,3,1.0483,0.4773,20,1,33,1,2,2,0,FM
8,0,1,3,0.9849,0.3957,20,1,34,1,2,1,0,FM
8,1,0,3,0.879,0.5509,20,1,35,1,2,1,0,FM
8,0,1,3,1.5675,0.3535,20,1,36,1,2,2,0,FM
8,1,0,3,2.868,0.5187,20,1,37,1,2,1,0,FM
8,1,0,3,0.8897,0.4875,20,1,38,1,2,1,0,FM
8,1,0,3,1.0059,0.291,20,1,39,1,2,2,0,FM
8,0,1,3,0.8785,0.3647,20,1,40,1,2,2,0,FM
8,1,0,3,0.9744,0.5913,20,1,41,1,2,1,0,FM
8,1,0,3,0.8474,0.4773,20,1,42,1,2,2,0,FM
8,0,1,3,0.8792,0.3643,20,1,43,1,2,2,0,FM
8,0,1,3,1.365,0.3959,20,1,44,1,2,2,0,FM
8,0,1,2,1.0177,1.9524,20,1,45,1,2,1,0,FM
8,1,0,3,0.763,0.6753,20,1,46,1,2,2,0,FM
8,0,1,3,0.8901,0.3986,20,1,47,1,2,1,0,FM
8,0,1,3,1.5243,0.593,20,1,48,1,2,2,0,FM
8,1,0,3,1.0064,0.8712,20,1,49,1,2,1,0,FM
8,1,0,3,0.8477,0.3543,20,1,50,1,2,2,0,FM
8,0,1,3,0.7731,0.2821,20,1,51,1,2,1,0,FM
8,0,1,3,0.8158,0.2602,20,1,52,1,2,2,0,FM
8,0,1,3,0.9316,0.3445,20,1,53,1,2,2,0,FM
8,1,0,3,1.2072,0.3966,20,1,54,1,2,2,0,FM
8,0,1,3,0.847,0.3112,20,1,55,1,2,1,0,FM
8,0,1,4,0.9752,0.365,20,1,56,1,2,2,0,FM
8,0,1,4,0.8512,0.5096,20,1,57,1,2,2,0,FM
8,1,0,3,2.0428,0.3528,20,1,58,1,2,2,0,FM
8,0,1,4,0.6992,0.5402,20,1,59,1,2,2,0,FM
8,1,0,3,0.8153,1.0691,20,1,60,1,2,1,0,FM
8,1,0,4,0.889,0.3131,20,1,61,1,2,2,0,FM
8,0,1,4,0.8552,0.4792,20,1,62,1,2,2,0,FM
8,1,0,2,1.5672,0.8306,20,1,63,1,2,1,0,FM
8,1,0,3,0.8122,0.5096,20,1,64,1,2,1,0,FM
8,1,0,2,0.9426,0.6647,20,1,65,1,2,2,0,FM
8,0,1,4,0.6885,0.7184,20,1,66,1,2,1,0,FM
8,0,1,3,1.5178,0.6338,20,1,67,1,2,1,0,FM
8,1,0,3,0.9216,0.5495,20,1,68,1,2,1,0,FM
8,1,1,2,1.1235,0.8417,20,1,69,1,2,2,1,FM
8,1,0,3,0.8051,0.5512,20,1,70,1,2,2,0,FM
8,0,1,4,0.6567,1.1102,20,1,71,1,2,1,0,FM
8,1,0,1,1.8001,1.141,20,1,72,1,2,1,0,FM
8,1,0,2,1.841,0.3939,20,1,73,1,2,1,0,FM
8,1,0,3,1.2069,0.7053,20,1,74,1,2,1,0,FM
8,1,1,1,1.3657,1.225,20,1,75,1,2,2,1,FM
8,1,1,1,2.0024,1.8747,20,1,76,1,2,2,1,FM
8,1,NaN,2,2.9951,2.5442,20,1,77,1,3,3,0,FM
8,1,0,3,0.9694,0.5926,20,1,78,1,2,1,0,FM
8,1,0,3,0.8571,0.3232,20,1,79,1,2,1,0,FM
8,1,0,2,0.8471,0.9858,20,1,80,1,2,2,0,FM
8,0,1,3,0.7739,0.3139,20,1,81,1,2,1,0,FM
8,1,0,3,0.6145,0.3942,20,1,82,1,2,2,0,FM
8,0,1,3,0.8864,0.2817,20,1,83,1,2,1,0,FM
8,1,0,3,0.8161,0.3539,20,1,84,1,2,2,0,FM
8,0,1,4,1.1647,0.8424,20,1,85,1,2,1,0,FM
8,0,1,4,1.0043,0.437,20,1,86,1,2,2,0,FM
8,1,0,3,1.0058,1.1921,20,1,87,1,2,1,0,FM
8,0,1,4,0.9218,0.7892,20,1,88,1,2,2,0,FM
8,0,1,2,0.8473,0.7995,20,1,89,1,2,1,0,FM
8,1,0,3,0.8469,1.235,20,1,90,1,2,2,0,FM
8,0,1,3,0.8791,0.5201,20,1,91,1,2,2,0,FM
8,1,0,3,0.8475,0.5185,20,1,92,1,2,2,0,FM
8,1,0,3,0.8152,0.3529,20,1,93,1,2,1,0,FM
8,0,1,4,1.1641,0.5917,20,1,94,1,2,2,0,FM
8,1,0,3,1.5554,1.339,20,1,95,1,2,2,0,FM
8,1,0,4,1.6404,0.5496,20,1,96,1,2,2,0,FM
8,1,0,4,0.89,0.4677,20,1,97,1,2,1,0,FM
8,1,0,2,1.8422,0.9543,20,1,98,1,2,1,0,FM
8,1,0,2,0.9213,0.6846,20,1,99,1,2,2,0,FM
8,1,0,3,1.3663,1.3058,20,1,100,1,2,1,0,FM
8,1,0,3,0.6903,0.7904,20,1,101,1,2,1,0,FM
8,0,1,3,1.4502,0.7889,20,1,102,1,2,2,0,FM
8,0,1,3,0.7733,0.3215,20,1,103,1,2,2,0,FM
8,1,0,3,0.8045,0.7054,20,1,104,1,2,1,0,FM
8,1,0,3,0.7624,0.6639,20,1,105,1,2,1,0,FM
8,0,1,3,0.8579,0.5501,20,1,106,1,2,1,0,FM
8,0,1,3,0.6991,0.7372,20,1,107,1,2,1,0,FM
8,0,1,4,1.4942,0.6448,20,1,108,1,2,2,0,FM
8,1,0,4,0.9634,0.5601,20,1,109,1,2,2,0,FM
8,0,1,3,1.3229,0.7884,20,1,110,1,2,1,0,FM
8,1,0,4,0.773,0.3957,20,1,111,1,2,1,0,FM
8,1,0,4,0.8961,0.6757,20,1,112,1,2,2,0,FM
8,0,1,4,0.8891,0.4786,20,1,113,1,2,2,0,FM
8,0,1,4,0.8471,0.52,20,1,114,1,2,2,0,FM
8,0,1,4,1.0878,0.3942,20,1,115,1,2,2,0,FM
8,1,0,4,0.8995,0.5418,20,1,116,1,2,1,0,FM
8,0,1,4,0.7779,0.4279,20,1,117,1,2,2,0,FM
8,0,1,3,0.9949,0.5919,20,1,118,1,2,2,0,FM
8,0,1,4,0.9317,0.5204,20,1,119,1,2,2,0,FM
8,1,0,3,1.6082,0.789,20,1,120,1,2,1,0,FM
9,0,0,3,0.9535,0.6153,19,1,1,1,6,1,1,FM
9,0,0,3,0.8476,0.5219,19,1,2,1,6,4,1,FM
9,0,0,3,1.0804,0.7603,19,1,3,1,7,5,1,FM
9,0,0,4,0.9744,0.5218,19,1,4,1,8,2,1,FM
9,1,0,3,2.0036,0.76,19,1,5,1,9,6,0,FM
9,1,1,3,0.975,0.7496,19,1,6,1,8,7,1,FM
9,1,1,4,1.5279,1.035,19,1,7,1,8,3,1,FM
9,0,0,4,0.9329,0.4076,19,1,8,1,9,7,1,FM
9,1,0,4,1.165,0.4715,19,1,9,1,10,1,0,FM
9,0,0,3,1.6845,0.7102,19,1,10,1,9,2,1,FM
9,1,1,3,1.3677,0.7714,19,1,11,1,9,4,1,FM
9,0,0,3,0.8576,0.6357,19,1,12,1,10,9,1,FM
9,1,1,3,0.8903,0.8401,19,1,13,1,11,1,1,FM
9,0,1,3,1.2936,0.6491,19,1,14,1,12,8,0,FM
9,0,0,3,1.2081,1.3926,19,1,15,1,11,8,1,FM
9,1,1,NaN,1.4946,2.9938,19,1,16,1,11,7,1,FM
9,1,1,3,0.9537,0.7933,19,1,17,1,12,3,1,FM
9,1,1,3,1.1651,0.3989,19,1,18,1,12,8,1,FM
9,0,0,3,1.1229,0.6806,19,1,19,1,12,4,1,FM
9,1,1,3,1.1341,0.4818,19,1,20,1,12,12,1,FM
9,0,0,3,1.0065,0.6361,19,1,21,1,12,5,1,FM
9,1,1,2,0.8694,0.9985,19,1,22,1,12,1,1,FM
9,1,1,3,1.0814,0.8107,19,1,23,1,12,12,1,FM
9,1,1,3,1.4415,0.6762,19,1,24,1,12,6,1,FM
9,1,1,3,1.5262,0.7078,19,1,25,1,12,10,1,FM
9,1,1,3,0.8554,0.5221,19,1,26,1,12,10,1,FM
9,1,1,3,1.0601,0.5637,19,1,27,1,12,4,1,FM
9,1,1,3,0.8904,0.6683,19,1,28,1,12,10,1,FM
9,1,1,3,1.3245,0.3972,19,1,29,1,12,2,1,FM
9,1,1,3,1.0065,0.522,19,1,30,1,12,10,1,FM
9,1,1,3,2.6364,0.5963,19,1,31,1,12,5,1,FM
9,0,1,3,0.8483,0.4814,19,1,32,1,12,12,0,FM
9,0,0,3,1.6742,0.3663,19,1,33,1,11,7,1,FM
9,0,1,3,1.3366,0.4815,19,1,34,1,11,3,0,FM
9,0,0,2,1.0486,1.1959,19,1,35,1,10,1,1,FM
9,1,1,1,1.3352,1.5495,19,1,36,1,10,10,1,FM
9,1,1,4,1.4849,0.738,19,1,37,1,11,8,1,FM
9,0,0,2,1.7589,0.7219,19,1,38,1,12,6,1,FM
9,0,0,3,1.3144,0.6789,19,1,39,1,12,3,1,FM
9,1,1,3,0.8477,0.7577,19,1,40,1,12,7,1,FM
9,0,0,1,1.0381,1.3554,19,1,41,1,12,12,1,FM
9,1,1,2,1.759,1.5609,19,1,42,1,12,1,1,FM
9,0,0,1,1.6326,0.7207,19,1,43,1,12,6,1,FM
9,1,1,2,1.7593,0.5572,19,1,44,1,12,8,1,FM
9,0,1,1,1.2088,1.8712,19,1,45,1,12,10,0,FM
9,0,0,2,0.9642,0.8756,19,1,46,1,11,3,1,FM
9,1,1,4,0.8162,0.7125,19,1,47,1,11,5,1,FM
9,0,0,4,1.1683,0.814,19,1,48,1,12,9,1,FM
9,1,1,3,0.7675,0.6781,19,1,49,1,12,10,1,FM
9,1,1,3,2.1184,0.6698,19,1,50,1,12,11,1,FM
9,0,1,4,0.9326,1.5064,19,1,51,1,12,6,0,FM
9,0,0,3,1.4007,1.4885,19,1,52,1,11,11,1,FM
9,1,0,3,2.1663,1.3727,19,1,53,1,11,5,0,FM
9,1,0,3,1.4942,0.6784,19,1,54,1,10,2,0,FM
9,0,0,4,1.1666,0.6357,19,1,55,1,9,5,1,FM
9,0,0,4,0.9747,0.437,19,1,56,1,9,3,1,FM
9,0,0,4,1.2511,0.4081,19,1,57,1,10,10,1,FM
9,1,1,4,0.9213,1.3208,19,1,58,1,11,5,1,FM
9,1,1,2,1.0822,1.3158,19,1,59,1,12,10,1,FM
9,0,0,2,1.4088,0.8024,19,1,60,1,12,5,1,FM
9,0,0,3,1.2074,2.1697,19,1,61,1,12,7,1,FM
9,0,0,3,0.8479,0.989,19,1,62,1,12,2,1,FM
9,0,1,4,1.049,0.4511,19,1,63,1,12,4,0,FM
9,1,1,3,1.5995,0.6784,19,1,64,1,11,3,1,FM
9,0,0,3,0.8063,0.524,19,1,65,1,11,9,1,FM
9,0,0,3,0.8903,0.4819,19,1,66,1,12,8,1,FM
9,0,1,2,1.282,1.0748,19,1,67,1,12,5,0,FM
9,0,0,3,1.2183,0.5232,19,1,68,1,11,9,1,FM
9,1,1,3,0.8578,0.5743,19,1,69,1,11,7,1,FM
9,0,1,3,1.1991,0.5971,19,1,70,1,12,11,0,FM
9,0,0,3,1.0165,0.585,19,1,71,1,11,1,1,FM
9,0,1,3,0.9648,0.6047,19,1,72,1,11,9,0,FM
9,0,0,3,1.9595,0.5616,19,1,73,1,10,9,1,FM
9,1,1,4,0.7697,0.4384,19,1,74,1,10,1,1,FM
9,1,1,4,1.1657,0.4813,19,1,75,1,11,1,1,FM
9,1,1,4,0.8827,0.8449,19,1,76,1,12,8,1,FM
9,0,0,2,2.2413,1.4356,19,1,77,1,12,6,1,FM
9,1,1,2,1.1974,0.8447,19,1,78,1,12,7,1,FM
9,1,1,3,1.165,0.7586,19,1,79,1,12,12,1,FM
9,1,0,1,2.754,0.4407,19,1,80,1,12,12,0,FM
9,1,1,2,1.1719,0.831,19,1,81,1,11,7,1,FM
9,1,0,2,2.2676,0.7584,19,1,82,1,11,8,0,FM
9,0,0,3,1.4479,0.6374,19,1,83,1,10,9,1,FM
9,0,0,2,1.097,0.8852,19,1,84,1,10,5,1,FM
9,0,0,3,1.1229,0.5234,19,1,85,1,11,1,1,FM
9,0,0,3,1.1974,0.9985,19,1,86,1,12,1,1,FM
9,0,0,3,1.4309,0.5599,19,1,87,1,12,6,1,FM
9,0,0,3,0.9745,0.637,19,1,88,1,12,5,1,FM
9,1,0,3,0.8053,0.594,19,1,89,1,12,5,0,FM
9,0,1,3,1.5293,0.6883,19,1,90,1,11,11,0,FM
9,0,1,2,2.1089,0.9987,19,1,91,1,10,8,0,FM
9,0,0,3,1.6842,0.5557,19,1,92,1,9,5,1,FM
9,1,1,3,1.7163,0.7943,19,1,93,1,9,1,1,FM
9,0,0,2,2.7638,0.916,19,1,94,1,10,5,1,FM
9,1,1,3,0.8476,0.4494,19,1,95,1,11,10,1,FM
9,1,1,3,1.165,0.5612,19,1,96,1,12,5,1,FM
9,1,0,3,1.2829,0.5636,19,1,97,1,12,2,0,FM
9,1,1,3,1.1246,0.6789,19,1,98,1,11,10,1,FM
9,1,0,2,1.5678,1.281,19,1,99,1,11,2,0,FM
9,0,1,3,1.3299,0.6833,19,1,100,1,10,1,0,FM
9,0,0,3,1.0841,0.4526,19,1,101,1,9,1,1,FM
9,0,0,3,1.3573,0.4913,19,1,102,1,9,4,1,FM
9,1,1,3,0.9749,0.4417,19,1,103,1,10,9,1,FM
9,0,0,1,1.7271,1.3945,19,1,104,1,11,1,1,FM
9,0,0,3,1.3887,0.5234,19,1,105,1,12,10,1,FM
9,1,1,4,0.9226,1.1714,19,1,106,1,12,7,1,FM
9,1,0,3,1.3797,0.5979,19,1,107,1,12,3,0,FM
9,0,0,3,1.8461,0.806,19,1,108,1,11,11,1,FM
9,1,1,2,1.1031,1.2425,19,1,109,1,11,3,1,FM
9,1,1,4,0.8286,0.6638,19,1,110,1,12,5,1,FM
9,1,1,4,1.0283,0.569,19,1,111,1,12,8,1,FM
9,0,0,3,1.2841,0.5244,19,1,112,1,12,3,1,FM
9,0,0,1,1.0912,0.5108,19,1,113,1,12,7,1,FM
9,1,1,4,0.6578,0.3873,19,1,114,1,12,7,1,FM
9,0,0,4,0.8794,0.3573,19,1,115,1,12,9,1,FM
9,0,0,2,0.9329,0.6971,19,1,116,1,12,8,1,FM
9,1,0,3,1.0912,0.5613,19,1,117,1,12,3,0,FM
9,1,1,3,1.1667,0.8884,19,1,118,1,11,4,1,FM
9,1,0,3,1.2925,1.1981,19,1,119,1,11,11,0,FM
9,1,NaN,1,2.9975,1.4179,19,1,120,1,10,3,0,FM
10,0,0,4,0.9538,0.9134,19,1,1,1,6,5,1,FM
10,0,0,4,0.8574,0.592,19,1,2,1,6,4,1,FM
10,1,1,3,1.4077,0.7903,19,1,3,1,7,6,1,FM
10,1,1,4,1.015,0.9987,19,1,4,1,8,3,1,FM
10,1,1,2,2.156,1.2558,19,1,5,1,9,7,1,FM
10,0,0,4,1.2894,0.5506,19,1,6,1,10,8,1,FM
10,0,1,2,1.1421,1.0643,19,1,7,1,11,11,0,FM
10,0,NaN,2,2.9909,0.7085,19,1,8,1,10,2,0,FM
10,1,1,2,1.5653,0.8319,19,1,9,1,9,9,1,FM
10,1,1,3,1.0577,0.8327,19,1,10,1,9,3,1,FM
10,1,1,3,1.2472,1.1113,19,1,11,1,10,1,1,FM
10,0,1,3,1.2479,1.1439,19,1,12,1,11,7,0,FM
10,1,1,3,1.4501,0.4782,19,1,13,1,10,3,1,FM
10,0,0,1,1.2508,0.7791,19,1,14,1,10,6,1,FM
10,1,1,4,1.0886,0.6548,19,1,15,1,11,6,1,FM
10,1,1,3,1.207,0.4797,19,1,16,1,12,4,1,FM
10,0,1,3,1.0886,0.4797,19,1,17,1,12,9,0,FM
10,1,1,4,1.3112,0.635,19,1,18,1,11,4,1,FM
10,1,1,4,1.1941,0.7479,19,1,19,1,11,5,1,FM
10,0,0,4,1.2475,0.6764,19,1,20,1,12,8,1,FM
10,1,1,4,0.9407,0.4689,19,1,21,1,12,7,1,FM
10,0,0,4,0.9734,0.4798,19,1,22,1,12,4,1,FM
10,0,0,4,0.8141,0.3955,19,1,23,1,12,5,1,FM
10,0,0,1,1.155,0.6856,19,1,24,1,12,3,1,FM
10,0,0,1,2.2734,1.1818,19,1,25,1,12,12,1,FM
10,0,1,2,2.1051,0.7597,19,1,26,1,12,10,0,FM
10,1,0,1,1.7226,0.6333,19,1,27,1,11,2,0,FM
10,0,0,1,1.3274,0.5829,19,1,28,1,10,4,1,FM
10,1,1,4,1.1654,1.0714,19,1,29,1,10,6,1,FM
10,1,1,3,1.1641,0.6658,19,1,30,1,11,6,1,FM
10,1,1,2,2.2735,0.7181,19,1,31,1,12,1,1,FM
10,0,1,3,1.0792,0.8227,19,1,32,1,12,10,0,FM
10,1,1,2,1.7671,0.6764,19,1,33,1,11,5,1,FM
10,0,0,2,1.3613,0.7181,19,1,34,1,11,2,1,FM
10,0,1,1,2.1149,0.7087,19,1,35,1,12,2,0,FM
10,0,0,1,1.1733,0.6583,19,1,36,1,11,11,1,FM
10,0,0,4,1.681,1.1044,19,1,37,1,11,2,1,FM
10,1,1,3,1.2896,0.71,19,1,38,1,12,5,1,FM
10,1,0,2,1.4797,1.3029,19,1,39,1,12,4,0,FM
10,1,1,3,1.5646,0.9139,19,1,40,1,11,2,1,FM
10,1,1,3,1.4816,1.5354,19,1,41,1,11,9,1,FM
10,1,1,4,1.248,0.5016,19,1,42,1,12,5,1,FM
10,0,0,3,1.2471,0.7616,19,1,43,1,12,3,1,FM
10,0,0,1,1.3214,0.7898,19,1,44,1,12,10,1,FM
10,1,0,2,1.3321,0.7807,19,1,45,1,12,1,0,FM
10,0,0,3,1.955,0.5936,19,1,46,1,11,4,1,FM
10,1,1,4,0.8455,0.6766,19,1,47,1,11,3,1,FM
10,0,0,2,1.3753,0.6965,19,1,48,1,12,10,1,FM
10,0,0,2,1.2056,0.678,19,1,49,1,12,11,1,FM
10,1,0,2,1.4815,0.7088,19,1,50,1,12,1,0,FM
10,0,1,1,1.4827,2.4108,19,1,51,1,11,7,0,FM
10,0,1,2,2.3145,0.9376,19,1,52,1,10,1,0,FM
10,0,1,1,0.9723,1.7494,19,1,53,1,9,9,0,FM
10,1,1,3,1.9118,1.071,19,1,54,1,8,8,1,FM
10,1,1,2,2.1237,0.4289,19,1,55,1,8,3,1,FM
10,1,1,3,1.2903,0.6365,19,1,56,1,9,8,1,FM
10,1,1,3,1.1635,0.7503,19,1,57,1,10,1,1,FM
10,0,0,4,1.2901,0.8376,19,1,58,1,11,1,1,FM
10,1,1,2,1.8378,0.707,19,1,59,1,12,7,1,FM
10,1,1,2,2.4818,0.5931,19,1,60,1,12,10,1,FM
10,0,1,3,1.3642,0.7069,19,1,61,1,12,10,0,FM
10,0,0,4,1.0565,0.7882,19,1,62,1,11,10,1,FM
10,0,0,4,1.291,0.5086,19,1,63,1,11,11,1,FM
10,0,0,4,1.0879,0.779,19,1,64,1,12,1,1,FM
10,0,0,4,0.8921,0.3903,19,1,65,1,12,1,1,FM
10,0,0,2,1.7221,0.7901,19,1,66,1,12,3,1,FM
10,0,1,2,1.1633,0.9508,19,1,67,1,12,10,0,FM
10,0,1,2,1.3625,0.595,19,1,68,1,11,7,0,FM
10,1,1,4,1.2049,0.8744,19,1,69,1,10,6,1,FM
10,0,1,3,1.0041,0.9465,19,1,70,1,10,10,0,FM
10,1,1,3,1.5217,0.4377,19,1,71,1,9,7,1,FM
10,0,0,3,1.2471,0.581,19,1,72,1,9,2,1,FM
10,0,0,3,1.8178,0.9034,19,1,73,1,10,8,1,FM
10,0,1,3,1.0894,1.2355,19,1,74,1,11,1,0,FM
10,0,0,4,1.2053,0.7915,19,1,75,1,10,6,1,FM
10,0,1,2,2.0395,0.9144,19,1,76,1,10,1,0,FM
10,0,0,2,1.2044,1.3073,19,1,77,1,9,2,1,FM
10,1,1,4,1.2046,0.9868,19,1,78,1,9,1,1,FM
10,1,1,4,0.9721,0.9878,19,1,79,1,10,2,1,FM
10,1,1,2,2.2711,1.2259,19,1,80,1,11,10,1,FM
10,1,1,4,1.2042,0.9051,19,1,81,1,12,12,1,FM
10,1,1,3,1.1383,0.5518,19,1,82,1,12,3,1,FM
10,1,1,3,1.0144,0.7184,19,1,83,1,12,4,1,FM
10,0,1,3,0.9998,0.6043,19,1,84,1,12,7,0,FM
10,0,0,4,1.2047,0.6331,19,1,85,1,11,5,1,FM
10,1,0,1,1.2893,0.862,19,1,86,1,11,11,0,FM
10,1,1,4,1.448,0.7913,19,1,87,1,10,6,1,FM
10,1,1,3,1.2474,0.7179,19,1,88,1,10,3,1,FM
10,0,0,3,1.3,0.7178,19,1,89,1,11,2,1,FM
10,0,1,4,1.4577,0.9138,19,1,90,1,12,3,0,FM
10,1,1,3,1.337,0.5522,19,1,91,1,11,9,1,FM
10,0,1,2,1.9248,0.7946,19,1,92,1,11,2,0,FM
10,1,1,4,1.099,1.0188,19,1,93,1,10,10,1,FM
10,1,0,2,1.9637,0.8008,19,1,94,1,10,7,0,FM
10,1,1,4,1.4889,1.0936,19,1,95,1,9,3,1,FM
10,0,0,4,1.0145,0.676,19,1,96,1,9,7,1,FM
10,1,0,2,2.3553,0.676,19,1,97,1,10,3,0,FM
10,1,1,3,1.0883,0.9987,19,1,98,1,9,1,1,FM
10,1,1,4,1.1623,0.8435,19,1,99,1,9,4,1,FM
10,0,0,3,1.0996,0.7178,19,1,100,1,10,10,1,FM
10,0,0,4,1.0564,0.707,19,1,101,1,11,6,1,FM
10,1,0,2,1.9237,0.6348,19,1,102,1,12,9,0,FM
10,0,0,4,1.1743,0.6239,19,1,103,1,11,4,1,FM
10,1,1,3,1.6604,0.7053,19,1,104,1,11,1,1,FM
10,1,1,3,1.8911,0.6343,19,1,105,1,12,11,1,FM
10,1,1,4,1.2051,0.481,19,1,106,1,12,7,1,FM
10,1,1,4,1.0516,0.4795,19,1,107,1,12,2,1,FM
10,1,1,2,1.2884,0.8323,19,1,108,1,12,5,1,FM
10,1,1,4,0.931,0.6364,19,1,109,1,12,7,1,FM
10,0,0,3,1.2563,0.8407,19,1,110,1,12,6,1,FM
10,1,1,4,0.8114,0.6455,19,1,111,1,12,7,1,FM
10,1,1,4,0.9545,0.6883,19,1,112,1,12,6,1,FM
10,0,1,2,1.4584,1.0821,19,1,113,1,12,10,0,FM
10,0,0,4,0.9732,0.6429,19,1,114,1,11,1,1,FM
10,0,0,3,0.9403,0.8791,19,1,115,1,11,6,1,FM
10,0,1,3,2.9161,0.7068,19,1,116,1,12,10,0,FM
10,0,1,3,2.0811,0.5531,19,1,117,1,11,10,0,FM
10,0,NaN,3,2.9902,2.5284,19,1,118,1,10,8,0,FM
10,1,0,1,1.3317,0.6187,19,1,119,1,9,3,0,FM
10,1,1,2,1.4621,0.706,19,1,120,1,8,1,1,FM
11,0,0,4,1.0908,1.6697,19,1,1,1,6,2,1,FM
11,1,1,3,1.235,0.8386,19,1,2,1,6,6,1,FM
11,0,0,3,1.2791,1.408,19,1,3,1,7,7,1,FM
11,0,0,3,1.7464,1.5048,19,1,4,1,8,7,1,FM
11,1,0,1,2.5485,1.516,19,1,5,1,9,2,0,FM
11,0,0,2,1.798,1.7739,19,1,6,1,8,1,1,FM
11,1,1,2,1.7228,1.7077,19,1,7,1,8,6,1,FM
11,1,0,1,1.8294,2.3728,19,1,8,1,9,5,0,FM
11,0,0,NaN,1.8316,2.9946,19,1,9,1,8,5,1,FM
11,1,0,3,1.1,2.1057,19,1,10,1,8,3,0,FM
11,1,1,4,1.0373,0.9143,19,1,11,1,7,4,1,FM
11,0,0,2,1.7974,1.8239,19,1,12,1,7,5,1,FM
11,0,0,3,1.1107,0.9553,19,1,13,1,8,5,1,FM
11,0,0,2,1.3213,0.9474,19,1,14,1,9,6,1,FM
11,0,NaN,1,2.992,0.9652,19,1,15,1,10,8,0,FM
11,0,0,1,1.195,1.0788,19,1,16,1,9,1,1,FM
11,0,1,3,2.3468,2.2927,19,1,17,1,9,4,0,FM
11,0,0,1,2.6332,1.1463,19,1,18,1,8,3,1,FM
11,0,0,4,1.0061,1.0267,19,1,19,1,8,1,1,FM
11,1,1,2,1.5542,1.2251,19,1,20,1,9,3,1,FM
11,1,0,3,1.5575,0.8716,19,1,21,1,10,8,0,FM
11,1,0,2,1.5173,1.0315,19,1,22,1,9,6,0,FM
11,0,0,3,1.1205,1.0682,19,1,23,1,8,6,1,FM
11,0,0,3,1.28,1.1107,19,1,24,1,8,5,1,FM
11,0,0,3,1.5119,0.9041,19,1,25,1,9,2,1,FM
11,1,1,3,1.2367,0.9056,19,1,26,1,10,6,1,FM
11,1,0,2,2.5913,1.1835,19,1,27,1,11,1,0,FM
11,1,1,3,1.8809,0.8638,19,1,28,1,10,9,1,FM
11,1,0,2,2.4307,0.5092,19,1,29,1,10,7,0,FM
11,1,0,2,1.3222,0.8733,19,1,30,1,9,5,0,FM
11,1,0,3,1.1623,0.9865,19,1,31,1,8,4,0,FM
11,1,1,4,1.0045,1.0096,19,1,32,1,7,5,1,FM
11,1,1,4,1.0043,0.9677,19,1,33,1,7,5,1,FM
11,0,0,4,1.9125,1.1203,19,1,34,1,8,7,1,FM
11,0,0,3,1.7542,1.3078,19,1,35,1,9,6,1,FM
11,1,1,3,1.5792,0.9145,19,1,36,1,10,3,1,FM
11,0,0,3,1.6483,1.7514,19,1,37,1,11,6,1,FM
11,0,0,3,1.321,1.1111,19,1,38,1,12,9,1,FM
11,1,0,3,1.9878,1.0682,19,1,39,1,12,7,0,FM
11,0,0,1,1.2077,0.716,19,1,40,1,11,3,1,FM
11,1,1,2,1.5607,1.6199,19,1,41,1,11,11,1,FM
11,1,0,1,1.5117,0.4798,19,1,42,1,12,5,0,FM
11,0,0,2,2.9056,1.3583,19,1,43,1,11,7,1,FM
11,1,1,4,0.9809,1.3505,19,1,44,1,11,1,1,FM
11,1,1,3,1.6385,0.7197,19,1,45,1,12,11,1,FM
11,1,1,3,1.7012,0.4287,19,1,46,1,12,3,1,FM
11,0,1,1,1.9555,1.624,19,1,47,1,12,1,0,FM
11,0,0,3,1.4376,1.6807,19,1,48,1,11,10,1,FM
11,1,0,2,1.6715,0.7596,19,1,49,1,11,2,0,FM
11,1,1,4,1.1972,1.149,19,1,50,1,10,9,1,FM
11,0,0,3,2.357,1.3076,19,1,51,1,10,6,1,FM
11,0,1,2,1.8713,0.9882,19,1,52,1,11,10,0,FM
11,0,0,3,1.2024,1.5443,19,1,53,1,10,5,1,FM
11,0,0,3,1.9145,1.3532,19,1,54,1,10,2,1,FM
11,0,0,3,2.188,0.6643,19,1,55,1,11,8,1,FM
11,0,0,3,1.1206,0.7578,19,1,56,1,12,5,1,FM
11,1,0,3,1.4066,1.2642,19,1,57,1,12,12,0,FM
11,1,1,3,1.1959,1.3515,19,1,58,1,11,10,1,FM
11,1,1,3,1.2843,0.7195,19,1,59,1,11,11,1,FM
11,1,1,3,2.3925,0.5953,19,1,60,1,12,12,1,FM
11,1,NaN,1,2.9926,1.0469,19,1,61,1,12,4,0,FM
11,1,1,1,1.3955,1.2368,19,1,62,1,11,11,1,FM
11,0,0,3,1.3225,0.7933,19,1,63,1,11,10,1,FM
11,1,1,1,1.9884,0.8642,19,1,64,1,12,4,1,FM
11,1,0,1,1.2377,1.2662,19,1,65,1,12,7,0,FM
11,1,0,2,1.1523,0.7905,19,1,66,1,11,8,0,FM
11,0,0,2,1.5227,1.0285,19,1,67,1,10,3,1,FM
11,1,1,3,0.9529,0.6244,19,1,68,1,10,8,1,FM
11,0,0,3,1.2381,0.7597,19,1,69,1,11,8,1,FM
11,1,0,1,1.7128,0.9868,19,1,70,1,12,7,0,FM
11,0,0,1,1.7145,0.4379,19,1,71,1,11,6,1,FM
11,0,0,3,2.0307,1.2349,19,1,72,1,11,6,1,FM
11,1,1,4,0.9196,0.5521,19,1,73,1,12,6,1,FM
11,0,0,3,2.347,1.3501,19,1,74,1,12,11,1,FM
11,1,0,3,1.7954,0.5842,19,1,75,1,12,5,0,FM
11,0,0,2,1.9135,1.1,19,1,76,1,11,6,1,FM
11,1,1,3,1.3238,0.7178,19,1,77,1,11,8,1,FM
11,0,1,2,1.7994,0.7516,19,1,78,1,12,3,0,FM
11,0,1,2,1.7123,0.9157,19,1,79,1,11,11,0,FM
11,0,0,3,1.7573,1.2347,19,1,80,1,10,7,1,FM
11,0,1,3,2.0404,0.5948,19,1,81,1,10,2,0,FM
11,1,1,4,1.0786,1.3075,19,1,82,1,9,2,1,FM
11,1,1,4,1.3219,0.5538,19,1,83,1,9,5,1,FM
11,0,0,3,1.649,1.0696,19,1,84,1,10,10,1,FM
11,1,0,3,1.5969,0.6242,19,1,85,1,11,6,0,FM
11,1,1,3,1.8081,0.9463,19,1,86,1,10,10,1,FM
11,0,0,3,2.1583,0.7487,19,1,87,1,10,1,1,FM
11,1,1,2,2.4315,1.4245,19,1,88,1,11,10,1,FM
11,1,1,3,1.48,0.9969,19,1,89,1,12,9,1,FM
11,1,0,2,2.1676,1.2252,19,1,90,1,12,4,0,FM
11,0,0,3,1.2911,0.4703,19,1,91,1,11,6,1,FM
11,1,1,3,1.2475,0.9177,19,1,92,1,11,4,1,FM
11,0,0,3,1.6077,0.9561,19,1,93,1,12,7,1,FM
11,0,0,3,1.3744,0.5824,19,1,94,1,12,7,1,FM
11,0,0,3,1.407,0.7903,19,1,95,1,12,8,1,FM
11,0,0,2,1.5347,1.0084,19,1,96,1,12,7,1,FM
11,1,1,2,1.1642,1.062,19,1,97,1,12,4,1,FM
11,0,0,3,1.4068,1.582,19,1,98,1,12,7,1,FM
11,1,1,3,1.2068,0.7207,19,1,99,1,12,4,1,FM
11,1,0,3,1.3223,0.5231,19,1,100,1,12,1,0,FM
11,0,0,3,1.0898,0.6238,19,1,101,1,11,6,1,FM
11,0,0,3,1.0153,1.4231,19,1,102,1,11,11,1,FM
11,0,0,1,1.3325,0.9142,19,1,103,1,12,3,1,FM
11,1,1,4,1.1209,0.7627,19,1,104,1,12,2,1,FM
11,0,0,2,1.5147,1.076,19,1,105,1,12,11,1,FM
11,0,0,1,1.28,0.9868,19,1,106,1,12,5,1,FM
11,0,1,2,1.2806,0.8811,19,1,107,1,12,12,0,FM
11,1,0,1,1.6056,0.8754,19,1,108,1,11,4,0,FM
11,0,0,3,1.1213,0.7921,19,1,109,1,10,2,1,FM
11,1,1,3,1.3223,0.7207,19,1,110,1,10,4,1,FM
11,1,1,3,1.1204,0.5105,19,1,111,1,11,7,1,FM
11,0,0,2,2.6002,0.9888,19,1,112,1,12,4,1,FM
11,1,1,1,1.7922,0.7502,19,1,113,1,12,6,1,FM
11,1,1,2,1.3632,1.5074,19,1,114,1,12,11,1,FM
11,1,1,2,0.9634,1.1544,19,1,115,1,12,2,1,FM
11,1,1,3,0.8777,0.512,19,1,116,1,12,12,1,FM
11,0,0,1,1.2822,0.6765,19,1,117,1,12,11,1,FM
11,0,0,3,1.4695,0.6352,19,1,118,1,12,5,1,FM
11,0,0,1,1.1207,1.0388,19,1,119,1,12,2,1,FM
11,1,1,4,1.0781,0.5121,19,1,120,1,12,2,1,FM
12,0,0,2,1.6024,1.8698,20,1,1,1,6,4,1,FM
12,0,0,3,1.1408,1.3883,20,1,2,1,6,2,1,FM
12,0,1,2,2.0606,1.2739,20,1,3,1,7,4,0,FM
12,0,0,3,1.2789,1.1721,20,1,4,1,6,6,1,FM
12,0,0,2,1.7149,1.6403,20,1,5,1,6,2,1,FM
12,0,1,2,2.3569,1.3921,20,1,6,1,7,7,0,FM
12,0,1,3,1.533,1.3202,20,1,7,1,6,4,0,FM
12,0,1,1,2.0392,2.8613,20,1,8,1,5,4,0,FM
12,1,1,4,1.2892,1.1632,20,1,9,1,4,2,1,FM
12,0,0,3,2.1152,2.3369,20,1,10,1,4,4,1,FM
12,1,1,4,1.3629,1.286,20,1,11,1,5,5,1,FM
12,0,1,3,1.1628,1.1685,20,1,12,1,6,4,0,FM
12,0,0,3,1.3083,1.009,20,1,13,1,5,5,1,FM
12,0,1,3,1.1224,0.8851,20,1,14,1,5,4,0,FM
12,0,0,4,1.2896,0.9251,20,1,15,1,4,4,1,FM
12,1,1,3,2.2875,1.6476,20,1,16,1,4,3,1,FM
12,1,1,4,1.1803,1.4218,20,1,17,1,5,1,1,FM
12,1,1,3,1.2315,0.9448,20,1,18,1,6,4,1,FM
12,1,0,3,1.5426,1.7715,20,1,19,1,7,6,0,FM
12,1,1,3,1.3904,1.1502,20,1,20,1,6,6,1,FM
12,1,1,3,1.2257,1.38,20,1,21,1,6,5,1,FM
12,0,0,3,1.2062,1.7721,20,1,22,1,7,4,1,FM
12,0,0,4,1.4999,0.624,20,1,23,1,8,2,1,FM
12,1,1,3,1.7106,1.8328,20,1,24,1,9,2,1,FM
12,0,0,2,1.9857,1.1411,20,1,25,1,10,2,1,FM
12,0,0,2,1.3099,1.3162,20,1,26,1,11,8,1,FM
12,1,0,1,2.1756,1.5354,20,1,27,1,12,9,0,FM
12,0,1,1,2.1853,1.3779,20,1,28,1,11,11,0,FM
12,0,1,2,1.9854,1.2947,20,1,29,1,10,3,0,FM
12,0,0,2,1.3154,1.3906,20,1,30,1,9,7,1,FM
12,1,1,3,1.3277,0.9033,20,1,31,1,9,8,1,FM
12,0,1,3,1.1938,0.9848,20,1,32,1,10,6,0,FM
12,0,1,3,1.0781,1.1519,20,1,33,1,9,1,0,FM
12,1,1,3,1.0719,0.6629,20,1,34,1,8,6,1,FM
12,1,1,4,0.9931,1.6378,20,1,35,1,8,1,1,FM
12,0,1,3,1.7141,0.799,20,1,36,1,9,9,0,FM
12,1,1,4,1.0259,0.602,20,1,37,1,8,3,1,FM
12,1,1,4,1.2281,0.4472,20,1,38,1,8,2,1,FM
12,1,1,4,1.3098,0.6345,20,1,39,1,9,8,1,FM
12,0,0,2,1.7431,1.7724,20,1,40,1,10,8,1,FM
12,1,1,2,1.037,1.8133,20,1,41,1,11,10,1,FM
12,1,1,2,1.3937,0.6759,20,1,42,1,12,3,1,FM
12,1,1,2,1.5014,1.0984,20,1,43,1,12,12,1,FM
12,0,0,2,2.0285,2.0199,20,1,44,1,12,4,1,FM
12,0,1,1,2.4927,1.0678,20,1,45,1,12,8,0,FM
12,1,1,1,2.1986,1.1919,20,1,46,1,11,3,1,FM
12,1,1,1,1.5824,0.9555,20,1,47,1,11,3,1,FM
12,1,0,1,1.656,2.0616,20,1,48,1,12,2,0,FM
12,1,1,1,1.9661,1.0157,20,1,49,1,11,10,1,FM
12,1,1,1,1.1104,1.3901,20,1,50,1,11,10,1,FM
12,1,1,3,1.2682,1.3477,20,1,51,1,12,6,1,FM
12,0,0,2,1.669,0.5194,20,1,52,1,12,10,1,FM
12,0,1,1,1.111,0.9877,20,1,53,1,12,8,0,FM
12,0,0,2,1.3845,0.6653,20,1,54,1,11,2,1,FM
12,1,1,2,2.0635,1.8139,20,1,55,1,11,8,1,FM
12,1,1,1,2.3022,0.7576,20,1,56,1,12,7,1,FM
12,1,1,1,2.165,0.987,20,1,57,1,12,8,1,FM
12,1,0,2,1.8162,1.4718,20,1,58,1,12,9,0,FM
12,0,0,1,1.4262,0.6343,20,1,59,1,11,2,1,FM
12,0,1,1,1.5427,0.9126,20,1,60,1,11,3,0,FM
12,0,1,1,2.6085,1.5042,20,1,61,1,10,6,0,FM
12,1,1,1,2.6598,0.8717,20,1,62,1,9,7,1,FM
12,0,0,3,1.311,0.7987,20,1,63,1,9,6,1,FM
12,1,1,3,1.2676,0.6348,20,1,64,1,10,6,1,FM
12,0,0,3,1.3865,0.871,20,1,65,1,11,9,1,FM
12,1,0,3,1.2677,0.7056,20,1,66,1,12,9,0,FM
12,1,0,3,1.1935,0.8713,20,1,67,1,11,1,0,FM
12,0,1,2,1.3111,1.1433,20,1,68,1,10,3,0,FM
12,0,1,2,1.345,0.9971,20,1,69,1,9,2,0,FM
12,0,1,3,1.151,0.5622,20,1,70,1,8,5,0,FM
12,1,1,3,1.6183,0.7994,20,1,71,1,7,4,1,FM
12,0,1,3,1.222,1.0384,20,1,72,1,7,4,0,FM
12,0,1,2,2.4624,1.1412,20,1,73,1,6,5,0,FM
12,1,1,4,1.4267,0.5608,20,1,74,1,5,2,1,FM
12,1,1,4,1.1618,0.509,20,1,75,1,5,5,1,FM
12,1,1,4,0.961,0.4278,20,1,76,1,6,2,1,FM
12,0,0,4,1.0461,0.4365,20,1,77,1,7,6,1,FM
12,1,1,4,1.0252,0.4259,20,1,78,1,8,1,1,FM
12,1,0,2,1.8276,1.151,20,1,79,1,9,5,0,FM
12,0,1,3,1.1832,0.5193,20,1,80,1,8,3,0,FM
12,0,0,3,1.2256,0.6745,20,1,81,1,7,6,1,FM
12,1,1,4,0.9946,0.6074,20,1,82,1,7,4,1,FM
12,0,0,2,1.236,0.9944,20,1,83,1,8,5,1,FM
12,1,1,4,1.109,0.4882,20,1,84,1,9,7,1,FM
12,1,0,3,1.3338,0.8297,20,1,85,1,10,9,0,FM
12,0,0,4,1.2338,0.9125,20,1,86,1,9,6,1,FM
12,0,1,3,1.1942,1.782,20,1,87,1,9,6,0,FM
12,0,0,4,1.754,1.0567,20,1,88,1,8,3,1,FM
12,1,1,4,1.1955,0.4796,20,1,89,1,8,7,1,FM
12,1,1,4,1.236,1.4609,20,1,90,1,9,2,1,FM
12,1,1,2,2.2609,1.3799,20,1,91,1,10,5,1,FM
12,1,1,1,2.3461,1.2241,20,1,92,1,11,7,1,FM
12,1,1,2,2.3022,0.914,20,1,93,1,12,3,1,FM
12,0,0,1,2.4612,1.7404,20,1,94,1,12,11,1,FM
12,0,0,2,1.3943,0.9232,20,1,95,1,12,12,1,FM
12,0,1,3,1.005,1.1118,20,1,96,1,12,9,0,FM
12,1,1,2,1.471,0.5933,20,1,97,1,11,6,1,FM
12,0,1,3,1.0464,0.8711,20,1,98,1,11,3,0,FM
12,1,1,2,1.5875,0.9956,20,1,99,1,10,9,1,FM
12,0,1,2,1.397,1.0263,20,1,100,1,10,10,0,FM
12,0,0,2,1.5439,0.9526,20,1,101,1,9,1,1,FM
12,1,1,4,1.1903,1.0371,20,1,102,1,9,2,1,FM
12,1,1,4,1.6694,0.4892,20,1,103,1,10,6,1,FM
12,1,0,2,1.1407,0.7162,20,1,104,1,11,6,0,FM
12,1,1,4,0.93,0.9447,20,1,105,1,10,5,1,FM
12,0,1,3,1.6685,1.275,20,1,106,1,10,7,0,FM
12,0,1,3,1.1195,1.5798,20,1,107,1,9,7,0,FM
12,1,1,4,1.0029,2.4872,20,1,108,1,8,4,1,FM
12,1,1,4,0.9735,0.3967,20,1,109,1,8,7,1,FM
12,1,1,4,0.9255,0.8834,20,1,110,1,9,9,1,FM
12,0,0,4,2.0278,1.182,20,1,111,1,10,4,1,FM
12,1,1,3,1.1626,0.5431,20,1,112,1,11,7,1,FM
12,0,0,4,1.1306,1.0983,20,1,113,1,12,7,1,FM
12,0,0,4,0.93,0.8567,20,1,114,1,12,3,1,FM
12,0,1,4,1.1302,0.5088,20,1,115,1,12,10,0,FM
12,1,1,4,1.0668,0.7051,20,1,116,1,11,3,1,FM
12,0,0,4,1.0375,0.4354,20,1,117,1,11,8,1,FM
12,1,0,2,1.7963,1.2223,20,1,118,1,12,9,0,FM
12,0,0,4,1.9119,1.0563,20,1,119,1,11,1,1,FM
12,1,0,4,1.0985,0.4247,20,1,120,1,11,5,0,FM
13,1,0,1,1.7335,1.0284,19,1,1,1,6,1,0,FM
13,0,0,4,1.3738,0.3845,19,1,2,1,6,1,1,FM
13,0,0,4,0.962,0.2603,19,1,3,1,6,1,1,FM
13,1,0,2,1.4472,0.55,19,1,4,1,7,4,0,FM
13,1,1,4,1.0781,0.3121,19,1,5,1,6,6,1,FM
13,1,1,4,1.2363,0.3549,19,1,6,1,6,4,1,FM
13,1,1,3,1.1222,0.4688,19,1,7,1,7,6,1,FM
13,1,0,2,0.7512,0.7584,19,1,8,1,8,2,0,FM
13,0,1,3,1.2429,0.864,19,1,9,1,7,1,0,FM
13,0,1,2,1.9896,0.9129,19,1,10,1,6,3,0,FM
13,0,0,3,0.761,0.9561,19,1,11,1,5,4,1,FM
13,1,1,4,1.5536,0.8617,19,1,12,1,5,4,1,FM
13,1,1,3,1.7228,0.5921,19,1,13,1,6,1,1,FM
13,1,1,4,1.4373,0.3136,19,1,14,1,7,3,1,FM
13,0,1,4,1.2714,0.326,19,1,15,1,8,6,0,FM
13,1,1,4,0.9217,0.2325,19,1,16,1,7,5,1,FM
13,1,1,4,1.1206,0.2311,19,1,17,1,7,6,1,FM
13,1,0,3,1.0785,0.5613,19,1,18,1,8,6,0,FM
13,0,1,4,1.237,0.3555,19,1,19,1,7,6,0,FM
13,0,1,4,0.9298,0.3241,19,1,20,1,6,6,0,FM
13,1,1,3,0.7171,0.4277,19,1,21,1,5,1,1,FM
13,0,0,3,1.0048,0.3862,19,1,22,1,5,2,1,FM
13,1,1,4,0.7614,0.3539,19,1,23,1,6,1,1,FM
13,1,1,3,1.3115,0.3232,19,1,24,1,7,4,1,FM
13,0,0,4,0.8776,0.4684,19,1,25,1,8,7,1,FM
13,1,1,2,0.9089,0.714,19,1,26,1,9,8,1,FM
13,1,1,3,1.6858,0.3432,19,1,27,1,10,2,1,FM
13,0,0,3,0.7403,0.7577,19,1,28,1,11,3,1,FM
13,0,1,2,1.4492,0.4368,19,1,29,1,12,7,0,FM
13,1,1,3,1.3316,0.4688,19,1,30,1,11,5,1,FM
13,0,0,2,1.0157,0.3323,19,1,31,1,11,11,1,FM
13,0,0,3,1.0165,0.3228,19,1,32,1,12,2,1,FM
13,1,0,3,0.7714,0.1874,19,1,33,1,12,7,0,FM
13,1,1,3,0.8884,0.3152,19,1,34,1,11,8,1,FM
13,1,0,3,0.929,0.4384,19,1,35,1,11,5,0,FM
13,1,1,3,1.4592,0.4262,19,1,36,1,10,6,1,FM
13,0,0,3,1.0148,0.5087,19,1,37,1,10,2,1,FM
13,0,0,3,0.8456,0.1867,19,1,38,1,11,3,1,FM
13,0,1,4,1.2203,0.5088,19,1,39,1,12,7,0,FM
13,0,0,3,0.8661,0.5092,19,1,40,1,11,9,1,FM
13,0,0,3,0.9731,0.2387,19,1,41,1,11,5,1,FM
13,1,1,3,0.8577,0.2826,19,1,42,1,12,1,1,FM
13,0,1,3,1.0893,0.2706,19,1,43,1,12,12,0,FM
13,0,0,2,0.6987,0.2293,19,1,44,1,11,3,1,FM
13,0,1,2,0.6565,0.7777,19,1,45,1,11,3,0,FM
13,0,1,3,0.8561,0.3846,19,1,46,1,10,5,0,FM
13,1,1,4,0.823,0.437,19,1,47,1,9,4,1,FM
13,1,1,3,0.9827,0.3939,19,1,48,1,9,5,1,FM
13,0,0,3,1.1311,0.829,19,1,49,1,10,1,1,FM
13,1,0,3,0.9728,0.5395,19,1,50,1,11,8,0,FM
13,1,1,2,1.2576,0.4665,19,1,51,1,10,4,1,FM
13,1,1,3,1.7981,0.53,19,1,52,1,10,3,1,FM
13,0,1,2,1.6806,0.3523,19,1,53,1,11,6,0,FM
13,0,1,3,1.3757,0.5916,19,1,54,1,10,8,0,FM
13,0,0,3,0.9311,0.3581,19,1,55,1,9,3,1,FM
13,1,1,3,1.0149,0.1986,19,1,56,1,9,8,1,FM
13,1,1,2,1.5636,0.4775,19,1,57,1,10,9,1,FM
13,1,1,3,1.4844,0.4664,19,1,58,1,11,9,1,FM
13,1,1,2,1.5646,0.5088,19,1,59,1,12,6,1,FM
13,0,1,3,1.3641,1.389,19,1,60,1,12,8,0,FM
13,1,1,2,1.2997,0.6334,19,1,61,1,11,9,1,FM
13,1,1,3,1.1309,1.0819,19,1,62,1,11,9,1,FM
13,1,1,1,1.6062,0.8635,19,1,63,1,12,8,1,FM
13,0,1,3,1.057,0.5952,19,1,64,1,12,6,0,FM
13,0,1,4,0.973,1.2984,19,1,65,1,11,1,0,FM
13,1,1,2,1.3427,0.7499,19,1,66,1,10,8,1,FM
13,0,0,2,1.3735,1.1092,19,1,67,1,10,2,1,FM
13,1,0,3,0.9314,0.3535,19,1,68,1,11,9,0,FM
13,0,1,2,1.0472,0.3233,19,1,69,1,10,3,0,FM
13,1,0,1,1.0161,0.5226,19,1,70,1,9,2,0,FM
13,1,1,1,1.3283,0.6657,19,1,71,1,8,8,1,FM
13,1,1,3,1.1004,1.1015,19,1,72,1,8,7,1,FM
13,1,0,2,1.0583,0.426,19,1,73,1,9,7,0,FM
13,1,1,2,1.2898,0.5521,19,1,74,1,8,7,1,FM
13,0,1,3,1.2796,0.7593,19,1,75,1,8,6,0,FM
13,0,0,1,1.0885,1.0678,19,1,76,1,7,1,1,FM
13,1,1,3,0.8983,0.4688,19,1,77,1,7,3,1,FM
13,0,1,3,1.4483,0.4366,19,1,78,1,8,1,0,FM
13,0,1,2,1.8502,0.593,19,1,79,1,7,6,0,FM
13,0,1,3,1.0369,0.2401,19,1,80,1,6,5,0,FM
13,0,0,4,1.0153,0.3874,19,1,81,1,5,2,1,FM
13,0,0,3,1.4905,0.3954,19,1,82,1,5,4,1,FM
13,0,0,2,1.2575,0.6031,19,1,83,1,6,6,1,FM
13,1,1,3,1.3254,0.3214,19,1,84,1,7,3,1,FM
13,0,0,3,0.7298,0.5092,19,1,85,1,8,2,1,FM
13,0,0,2,0.9731,0.3949,19,1,86,1,9,4,1,FM
13,0,0,2,1.1637,0.6341,19,1,87,1,10,4,1,FM
13,0,1,2,1.1763,0.5919,19,1,88,1,11,5,0,FM
13,1,1,3,1.4058,0.3539,19,1,89,1,10,5,1,FM
13,1,0,3,1.2498,0.2799,19,1,90,1,10,7,0,FM
13,1,0,3,0.656,0.3121,19,1,91,1,9,3,0,FM
13,0,0,4,0.8211,0.6633,19,1,92,1,8,6,1,FM
13,0,NaN,2,2.991,1.0569,19,1,93,1,8,7,0,FM
13,1,1,1,1.5753,0.2291,19,1,94,1,7,6,1,FM
13,1,0,2,1.2577,0.4976,19,1,95,1,7,7,0,FM
13,1,1,3,0.8989,0.3982,19,1,96,1,6,6,1,FM
13,1,1,3,0.8557,0.2707,19,1,97,1,6,3,1,FM
13,1,1,3,0.8456,0.2398,19,1,98,1,7,5,1,FM
13,1,1,4,0.8567,0.3017,19,1,99,1,8,4,1,FM
13,1,0,3,1.6555,0.3739,19,1,100,1,9,5,0,FM
13,1,1,3,1.3334,0.8612,19,1,101,1,8,5,1,FM
13,0,1,3,1.1739,0.6672,19,1,102,1,8,8,0,FM
13,0,0,3,0.8581,0.3013,19,1,103,1,7,6,1,FM
13,1,1,3,1.3783,0.5106,19,1,104,1,7,4,1,FM
13,0,1,4,1.2169,0.2412,19,1,105,1,8,4,0,FM
13,0,0,1,1.6383,0.5506,19,1,106,1,7,2,1,FM
13,1,0,2,1.0574,0.3525,19,1,107,1,7,4,0,FM
13,0,1,3,0.8137,0.3845,19,1,108,1,6,5,0,FM
13,0,1,4,1.0995,0.5028,19,1,109,1,5,3,0,FM
13,0,1,4,1.1623,0.6325,19,1,110,1,4,2,0,FM
13,0,0,4,1.1739,0.2818,19,1,111,1,3,1,1,FM
13,1,1,4,1.1005,0.2935,19,1,112,1,3,2,1,FM
13,0,0,4,0.814,1.1923,19,1,113,1,4,4,1,FM
13,0,0,4,0.8045,0.2186,19,1,114,1,5,4,1,FM
13,0,1,4,0.8995,0.24,19,1,115,1,6,3,0,FM
13,1,1,4,1.2376,0.1879,19,1,116,1,5,4,1,FM
13,0,0,2,1.9236,0.3524,19,1,117,1,5,1,1,FM
13,0,0,2,1.4494,0.3213,19,1,118,1,6,1,1,FM
13,1,1,3,1.0564,0.1982,19,1,119,1,7,5,1,FM
13,0,1,2,1.6816,0.5094,19,1,120,1,8,2,0,FM
14,0,0,4,0.8284,0.426,18,1,1,1,6,4,1,FM
14,0,0,4,0.7247,0.2916,18,1,2,1,6,4,1,FM
14,0,0,4,0.7328,0.3136,18,1,3,1,7,2,1,FM
14,1,0,1,1.6607,0.5086,18,1,4,1,8,8,0,FM
14,0,0,4,1.4392,0.3856,18,1,5,1,7,3,1,FM
14,1,1,3,1.3974,0.6254,18,1,6,1,7,4,1,FM
14,1,0,1,0.8489,0.8717,18,1,7,1,8,2,0,FM
14,0,0,4,1.9013,0.398,18,1,8,1,7,6,1,FM
14,0,0,3,1.5526,0.7478,18,1,9,1,7,2,1,FM
14,1,1,3,1.4742,0.7478,18,1,10,1,8,3,1,FM
14,1,0,3,2.7814,0.7064,18,1,11,1,9,7,0,FM
14,0,0,4,1.2751,0.6309,18,1,12,1,8,7,1,FM
14,1,0,3,1.4393,0.469,18,1,13,1,8,2,0,FM
14,1,1,4,1.1262,0.7846,18,1,14,1,7,5,1,FM
14,0,0,4,1.0039,0.3965,18,1,15,1,7,5,1,FM
14,1,0,3,1.5525,1.7391,18,1,16,1,8,1,0,FM
14,0,0,4,1.0039,0.4684,18,1,17,1,7,6,1,FM
14,1,0,4,2.3181,0.2733,18,1,18,1,7,1,0,FM
14,0,1,2,1.3663,0.5099,18,1,19,1,6,2,0,FM
14,1,1,4,1.0459,0.3857,18,1,20,1,5,4,1,FM
14,0,0,2,1.5319,0.5408,18,1,21,1,5,3,1,FM
14,0,0,4,1.246,0.4982,18,1,22,1,6,4,1,FM
14,1,0,1,2.3614,0.4582,18,1,23,1,7,6,0,FM
14,0,0,4,1.9247,0.3428,18,1,24,1,6,5,1,FM
14,0,0,2,0.9219,1.1072,18,1,25,1,6,5,1,FM
14,0,0,2,1.1665,0.5087,18,1,26,1,7,5,1,FM
14,0,0,1,1.3955,0.548,18,1,27,1,8,3,1,FM
14,1,0,2,1.5843,0.7467,18,1,28,1,9,6,0,FM
14,1,0,2,1.0047,0.6634,18,1,29,1,8,4,0,FM
14,1,0,3,1.0091,0.5927,18,1,30,1,7,1,0,FM
14,0,0,4,0.8036,0.355,18,1,31,1,6,4,1,FM
14,1,0,1,1.3972,1.0274,18,1,32,1,6,5,0,FM
14,0,0,4,0.8901,0.3029,18,1,33,1,5,2,1,FM
14,1,1,4,1.4496,0.5514,18,1,34,1,5,3,1,FM
14,0,0,4,1.4003,0.3119,18,1,35,1,6,1,1,FM
14,0,0,4,0.9629,0.2737,18,1,36,1,7,1,1,FM
14,0,0,3,1.4804,0.7072,18,1,37,1,8,3,1,FM
14,0,1,3,1.9563,0.9862,18,1,38,1,9,8,0,FM
14,1,0,3,1.9156,0.4668,18,1,39,1,8,1,0,FM
14,1,1,2,1.3253,0.7063,18,1,40,1,7,6,1,FM
14,0,0,4,0.9624,0.3123,18,1,41,1,7,7,1,FM
14,0,0,3,0.9322,0.9779,18,1,42,1,8,3,1,FM
14,0,0,3,1.2425,0.395,18,1,43,1,9,6,1,FM
14,1,1,2,2.1424,0.5602,18,1,44,1,10,10,1,FM
14,0,0,2,0.9215,0.6638,18,1,45,1,11,4,1,FM
14,1,1,3,1.4392,0.6328,18,1,46,1,12,5,1,FM
14,1,1,4,1.0147,0.3852,18,1,47,1,12,4,1,FM
14,0,0,4,1.0044,0.3012,18,1,48,1,12,5,1,FM
14,0,1,2,2.1531,0.5298,18,1,49,1,12,1,0,FM
14,1,1,4,1.5463,0.3427,18,1,50,1,11,1,1,FM
14,1,0,2,1.7604,0.5083,18,1,51,1,11,9,0,FM
14,1,1,4,1.1599,0.2675,18,1,52,1,10,8,1,FM
14,0,0,2,1.5629,0.4259,18,1,53,1,10,4,1,FM
14,1,1,2,1.7185,1.224,18,1,54,1,11,4,1,FM
14,0,0,3,1.005,0.5098,18,1,55,1,12,5,1,FM
14,0,0,4,1.2419,0.229,18,1,56,1,12,5,1,FM
14,1,0,4,0.963,0.3242,18,1,57,1,12,2,0,FM
14,0,0,4,0.6418,0.4584,18,1,58,1,11,5,1,FM
14,1,0,4,0.7662,0.3537,18,1,59,1,11,1,0,FM
14,1,0,1,1.2109,0.6633,18,1,60,1,10,4,0,FM
14,0,0,2,1.3149,0.557,18,1,61,1,9,2,1,FM
14,1,1,2,1.4807,0.6515,18,1,62,1,9,8,1,FM
14,0,1,2,1.519,0.7426,18,1,63,1,10,3,0,FM
14,1,1,2,1.2794,0.6655,18,1,64,1,9,8,1,FM
14,1,1,2,1.9952,0.5407,18,1,65,1,9,7,1,FM
14,0,0,3,2.2789,0.8608,18,1,66,1,10,8,1,FM
14,1,0,2,1.8332,0.705,18,1,67,1,11,9,0,FM
14,0,0,1,2.229,0.3136,18,1,68,1,10,6,1,FM
14,1,0,2,1.7602,0.7052,18,1,69,1,10,10,0,FM
14,1,0,2,1.439,0.5113,18,1,70,1,9,3,0,FM
14,0,0,4,1.201,0.3551,18,1,71,1,8,3,1,FM
14,0,0,4,1.1593,0.3123,18,1,72,1,8,5,1,FM
14,1,0,2,1.8433,0.5924,18,1,73,1,9,9,0,FM
14,0,0,4,1.1599,0.271,18,1,74,1,8,7,1,FM
14,1,1,4,1.2444,0.83,18,1,75,1,8,6,1,FM
14,0,0,3,1.2434,0.5409,18,1,76,1,9,6,1,FM
14,1,1,3,1.0047,0.4701,18,1,77,1,10,1,1,FM
14,0,0,4,1.0457,0.3121,18,1,78,1,11,8,1,FM
14,1,1,3,1.2357,0.6347,18,1,79,1,12,8,1,FM
14,0,1,2,1.432,0.6769,18,1,80,1,12,7,0,FM
14,1,0,2,1.3508,1.1822,18,1,81,1,11,6,0,FM
14,1,1,4,1.0781,0.3983,18,1,82,1,10,6,1,FM
14,1,0,1,1.1504,0.519,18,1,83,1,10,10,0,FM
14,1,1,2,1.208,0.696,18,1,84,1,9,7,1,FM
14,0,0,2,1.6044,0.7891,18,1,85,1,9,8,1,FM
14,1,0,1,1.3998,0.5824,18,1,86,1,10,3,0,FM
14,0,0,3,1.2941,1.2123,18,1,87,1,9,7,1,FM
14,0,0,2,1.481,0.8592,18,1,88,1,9,2,1,FM
14,0,0,3,1.0145,0.541,18,1,89,1,10,1,1,FM
14,1,1,2,1.6461,0.8612,18,1,90,1,11,7,1,FM
14,1,0,1,1.2016,0.6341,18,1,91,1,12,2,0,FM
14,1,1,2,1.1178,1.1527,18,1,92,1,11,4,1,FM
14,0,0,2,1.2837,0.7402,18,1,93,1,11,6,1,FM
14,1,1,2,2.039,0.706,18,1,94,1,12,6,1,FM
14,0,0,3,0.8907,0.8202,18,1,95,1,12,5,1,FM
14,1,1,2,1.2838,0.7901,18,1,96,1,12,11,1,FM
14,0,1,2,2.07,0.8603,18,1,97,1,12,3,0,FM
14,1,0,2,2.0399,0.5914,18,1,98,1,11,1,0,FM
14,1,1,2,1.915,1.0581,18,1,99,1,10,7,1,FM
14,1,0,2,2.28,0.622,18,1,100,1,10,2,0,FM
14,0,0,2,1.4395,0.6315,18,1,101,1,9,3,1,FM
14,0,0,2,1.3562,0.5905,18,1,102,1,9,9,1,FM
14,0,0,4,0.7255,0.3545,18,1,103,1,10,3,1,FM
14,1,1,3,1.4552,1.12,18,1,104,1,11,5,1,FM
14,0,0,4,1.353,0.3524,18,1,105,1,12,11,1,FM
14,1,1,2,1.1951,0.3539,18,1,106,1,12,7,1,FM
14,1,0,3,1.2374,0.5596,18,1,107,1,12,12,0,FM
14,1,1,2,1.2887,0.4217,18,1,108,1,11,3,1,FM
14,1,1,2,1.4227,0.6135,18,1,109,1,11,5,1,FM
14,0,0,4,0.9733,0.2908,18,1,110,1,12,5,1,FM
14,0,0,3,1.1597,0.8815,18,1,111,1,12,1,1,FM
14,0,0,3,1.1322,0.395,18,1,112,1,12,5,1,FM
14,0,0,2,1.5653,0.8824,18,1,113,1,12,4,1,FM
14,0,0,4,0.9345,1.12,18,1,114,1,12,6,1,FM
14,1,0,2,1.3222,0.9325,18,1,115,1,12,9,0,FM
14,0,0,3,1.2044,0.7876,18,1,116,1,11,5,1,FM
14,1,0,3,1.1323,0.7873,18,1,117,1,11,4,0,FM
14,0,0,4,1.4111,0.5082,18,1,118,1,10,9,1,FM
14,1,1,2,1.5227,1.0287,18,1,119,1,10,4,1,FM
14,1,0,3,1.3318,0.6121,18,1,120,1,11,5,0,FM
15,0,0,4,1.0041,0.2726,19,1,1,1,6,3,1,FM
15,0,0,4,0.6451,0.1996,19,1,2,1,6,1,1,FM
15,1,1,4,1.2044,0.2414,19,1,3,1,7,7,1,FM
15,1,1,3,1.0397,0.3663,19,1,4,1,8,5,1,FM
15,0,0,1,1.5114,0.4276,19,1,5,1,9,8,1,FM
15,1,1,3,1.5005,1.1523,19,1,6,1,10,8,1,FM
15,0,0,4,1.5533,0.314,19,1,7,1,11,5,1,FM
15,1,1,3,1.3637,0.2738,19,1,8,1,12,7,1,FM
15,0,0,4,0.9202,0.2002,19,1,9,1,12,7,1,FM
15,0,1,3,1.3751,0.2737,19,1,10,1,12,5,0,FM
15,0,1,3,2.3563,0.5502,19,1,11,1,11,8,0,FM
15,1,1,4,1.2366,0.3192,19,1,12,1,10,6,1,FM
15,0,0,4,1.0356,0.4797,19,1,13,1,10,10,1,FM
15,0,1,3,1.9121,0.3028,19,1,14,1,11,2,0,FM
15,1,1,3,1.3219,0.3136,19,1,15,1,10,2,1,FM
15,1,1,2,1.6739,0.6346,19,1,16,1,10,9,1,FM
15,0,0,3,1.1948,0.5076,19,1,17,1,11,8,1,FM
15,0,0,4,1.1628,0.3569,19,1,18,1,12,2,1,FM
15,0,1,3,1.4377,0.3985,19,1,19,1,12,11,0,FM
15,1,0,3,1.9437,0.3249,19,1,20,1,11,6,0,FM
15,0,0,4,0.9719,0.2832,19,1,21,1,10,8,1,FM
15,1,1,3,2.3986,0.386,19,1,22,1,10,9,1,FM
15,1,1,4,1.2995,0.4077,19,1,23,1,11,7,1,FM
15,0,0,2,1.1939,0.7591,19,1,24,1,12,5,1,FM
15,1,1,3,1.7116,0.2325,19,1,25,1,12,4,1,FM
15,0,0,3,2.2348,0.2413,19,1,26,1,12,5,1,FM
15,0,0,2,1.1943,0.2722,19,1,27,1,12,12,1,FM
15,0,1,3,1.7121,0.3248,19,1,28,1,12,11,0,FM
15,0,0,3,1.2362,0.2829,19,1,29,1,11,4,1,FM
15,0,0,3,1.4264,0.1985,19,1,30,1,11,10,1,FM
15,1,1,3,1.2774,0.2229,19,1,31,1,12,6,1,FM
15,1,1,3,1.4801,0.283,19,1,32,1,12,1,1,FM
15,0,0,3,1.4068,0.2813,19,1,33,1,12,3,1,FM
15,1,1,3,1.3437,0.128,19,1,34,1,12,12,1,FM
15,1,1,3,1.1526,0.0971,19,1,35,1,12,12,1,FM
15,1,1,3,1.2682,0.3232,19,1,36,1,12,1,1,FM
15,1,1,4,1.1202,0.2416,19,1,37,1,12,1,1,FM
15,0,0,1,1.1425,1.0384,19,1,38,1,12,11,1,FM
15,1,1,3,1.5617,0.2721,19,1,39,1,12,4,1,FM
15,1,1,3,1.1204,0.1585,19,1,40,1,12,10,1,FM
15,0,0,3,1.0766,0.1985,19,1,41,1,12,8,1,FM
15,0,1,3,1.7538,0.4383,19,1,42,1,12,1,0,FM
15,0,0,4,0.8777,0.3334,19,1,43,1,11,1,1,FM
15,0,0,4,0.8091,0.2534,19,1,44,1,11,6,1,FM
15,1,1,4,1.244,0.2113,19,1,45,1,12,7,1,FM
15,1,1,4,1.0275,0.4197,19,1,46,1,12,9,1,FM
15,0,0,4,1.1291,0.2825,19,1,47,1,12,3,1,FM
15,0,0,4,1.0156,0.2507,19,1,48,1,12,3,1,FM
15,1,1,4,2.0604,0.4315,19,1,49,1,12,12,1,FM
15,0,1,3,2.4677,0.9162,19,1,50,1,12,11,0,FM
15,0,0,3,1.2894,2.1764,19,1,51,1,11,4,1,FM
15,1,1,3,1.6079,0.1997,19,1,52,1,11,11,1,FM
15,1,1,3,1.3746,0.2001,19,1,53,1,12,5,1,FM
15,0,0,4,0.898,0.3032,19,1,54,1,12,1,1,FM
15,1,1,3,1.2999,0.2415,19,1,55,1,12,8,1,FM
15,1,1,3,1.4103,0.4395,19,1,56,1,12,1,1,FM
15,0,0,4,0.856,0.4274,19,1,57,1,12,8,1,FM
15,1,1,4,1.3212,0.314,19,1,58,1,12,1,1,FM
15,0,0,4,1.1412,0.2832,19,1,59,1,12,10,1,FM
15,1,1,3,1.5083,0.4061,19,1,60,1,12,3,1,FM
15,0,0,4,1.0835,0.2522,19,1,61,1,12,6,1,FM
15,0,1,3,1.3209,0.6764,19,1,62,1,12,3,0,FM
15,0,0,4,0.8037,0.3969,19,1,63,1,11,3,1,FM
15,0,0,4,0.8036,0.2831,19,1,64,1,11,5,1,FM
15,0,0,4,1.6793,0.2524,19,1,65,1,12,1,1,FM
15,1,1,4,1.6338,0.604,19,1,66,1,12,3,1,FM
15,1,1,3,1.6809,0.9666,19,1,67,1,12,10,1,FM
15,1,1,4,1.2469,0.4183,19,1,68,1,12,5,1,FM
15,1,0,2,1.7232,0.4488,19,1,69,1,12,11,0,FM
15,1,1,4,1.2172,0.3565,19,1,70,1,11,7,1,FM
15,1,1,4,1.0142,0.2411,19,1,71,1,11,4,1,FM
15,0,0,4,0.9192,0.2415,19,1,72,1,12,8,1,FM
15,0,0,4,0.8772,0.2829,19,1,73,1,12,12,1,FM
15,1,1,4,1.3483,0.366,19,1,74,1,12,4,1,FM
15,0,0,4,1.0566,0.2091,19,1,75,1,12,11,1,FM
15,1,0,4,1.2467,0.1588,19,1,76,1,12,3,0,FM
15,0,0,4,0.7403,0.2002,19,1,77,1,11,7,1,FM
15,0,0,4,0.8565,0.2108,19,1,78,1,11,9,1,FM
15,1,1,4,1.2896,0.3253,19,1,79,1,12,2,1,FM
15,1,1,4,1.131,0.2416,19,1,80,1,12,7,1,FM
15,1,1,4,1.0887,0.2829,19,1,81,1,12,5,1,FM
15,1,1,3,1.0885,0.6762,19,1,82,1,12,7,1,FM
15,0,0,4,0.9304,0.2416,19,1,83,1,12,10,1,FM
15,1,1,4,1.174,0.3246,19,1,84,1,12,10,1,FM
15,0,1,3,1.2895,0.3243,19,1,85,1,12,11,0,FM
15,0,0,4,1.0129,0.4797,19,1,86,1,11,11,1,FM
15,0,0,4,0.8957,0.2108,19,1,87,1,11,3,1,FM
15,1,1,4,1.2472,0.2933,19,1,88,1,12,2,1,FM
15,0,0,4,0.9302,0.1572,19,1,89,1,12,1,1,FM
15,1,1,4,1.6795,0.2001,19,1,90,1,12,10,1,FM
15,0,0,2,1.3682,0.4075,19,1,91,1,12,6,1,FM
15,1,1,3,0.9316,0.3136,19,1,92,1,12,9,1,FM
15,0,0,4,0.8135,0.2106,19,1,93,1,12,11,1,FM
15,1,1,4,1.0035,0.2522,19,1,94,1,12,9,1,FM
15,1,1,4,0.8533,0.2534,19,1,95,1,12,8,1,FM
15,0,0,4,0.8558,0.1585,19,1,96,1,12,1,1,FM
15,0,1,1,1.8804,0.4688,19,1,97,1,12,2,0,FM
15,0,0,4,0.7731,0.2124,19,1,98,1,11,2,1,FM
15,1,0,2,1.2874,0.6037,19,1,99,1,11,11,0,FM
15,1,1,3,1.1731,0.3965,19,1,100,1,10,3,1,FM
15,0,0,4,0.8452,0.283,19,1,101,1,10,10,1,FM
15,1,0,2,1.7326,0.7176,19,1,102,1,11,2,0,FM
15,1,0,2,2.0076,0.5476,19,1,103,1,10,4,0,FM
15,1,1,4,1.2139,0.6456,19,1,104,1,9,3,1,FM
15,0,0,4,0.8892,0.2523,19,1,105,1,9,9,1,FM
15,0,0,4,1.406,0.2415,19,1,106,1,10,1,1,FM
15,1,1,3,1.1964,0.5575,19,1,107,1,11,11,1,FM
15,1,1,4,1.7214,0.2937,19,1,108,1,12,5,1,FM
15,1,1,3,1.2539,0.3658,19,1,109,1,12,12,1,FM
15,1,1,3,1.2474,0.5037,19,1,110,1,12,6,1,FM
15,0,0,4,0.8997,0.2309,19,1,111,1,12,6,1,FM
15,0,0,4,0.939,0.1569,19,1,112,1,12,1,1,FM
15,1,1,4,1.4089,0.2108,19,1,113,1,12,9,1,FM
15,1,1,4,1.5316,0.211,19,1,114,1,12,12,1,FM
15,0,1,2,1.7969,0.635,19,1,115,1,12,5,0,FM
15,0,0,3,0.9412,0.3861,19,1,116,1,11,10,1,FM
15,0,0,4,1.2577,0.1691,19,1,117,1,11,6,1,FM
15,1,0,3,1.7977,0.521,19,1,118,1,12,3,0,FM
15,1,1,3,1.3212,0.6347,19,1,119,1,11,5,1,FM
15,1,1,4,1.432,0.314,19,1,120,1,11,11,1,FM
16,0,0,4,0.9625,0.394,19,1,1,1,6,5,1,FM
16,1,1,4,0.9622,0.2708,19,1,2,1,6,4,1,FM
16,0,1,1,0.8776,1.3585,19,1,3,1,7,5,0,FM
16,0,0,4,1.0793,0.3951,19,1,4,1,6,6,1,FM
16,1,1,4,0.9517,0.2816,19,1,5,1,6,6,1,FM
16,1,1,4,0.8867,0.2282,19,1,6,1,7,2,1,FM
16,0,0,4,1.3987,0.311,19,1,7,1,8,7,1,FM
16,1,1,2,1.2385,0.2721,19,1,8,1,9,1,1,FM
16,0,0,4,1.3118,0.24,19,1,9,1,10,2,1,FM
16,1,1,3,0.9202,0.5507,19,1,10,1,11,9,1,FM
16,0,0,4,1.4388,0.3643,19,1,11,1,12,6,1,FM
16,0,1,2,1.4719,0.5197,19,1,12,1,12,2,0,FM
16,0,0,3,1.3535,0.561,19,1,13,1,11,3,1,FM
16,1,1,4,0.9948,0.5493,19,1,14,1,11,6,1,FM
16,0,0,4,1.2396,0.3218,19,1,15,1,12,2,1,FM
16,0,0,3,1.3231,0.5917,19,1,16,1,12,10,1,FM
16,1,1,4,1.2476,0.3153,19,1,17,1,12,6,1,FM
16,1,1,2,1.1217,0.4889,19,1,18,1,12,2,1,FM
16,0,0,4,1.123,0.4364,19,1,19,1,12,11,1,FM
16,1,1,4,1.2369,0.2815,19,1,20,1,12,11,1,FM
16,0,0,4,1.0417,0.3645,19,1,21,1,12,10,1,FM
16,0,0,3,1.4707,0.3133,19,1,22,1,12,9,1,FM
16,1,1,3,1.4814,0.5184,19,1,23,1,12,5,1,FM
16,0,1,2,1.3215,0.3535,19,1,24,1,12,2,0,FM
16,0,0,3,1.0765,0.2815,19,1,25,1,11,6,1,FM
16,1,1,2,1.0792,0.3228,19,1,26,1,11,4,1,FM
16,1,1,2,1.9549,0.9971,19,1,27,1,12,4,1,FM
16,0,1,2,0.9618,0.2706,19,1,28,1,12,2,0,FM
16,0,0,3,1.0677,0.4887,19,1,29,1,11,9,1,FM
16,0,0,4,1.2793,0.425,19,1,30,1,11,3,1,FM
16,0,0,4,0.9634,0.3121,19,1,31,1,12,7,1,FM
16,0,0,4,1.2802,0.3609,19,1,32,1,12,3,1,FM
16,1,1,4,1.0898,0.3539,19,1,33,1,12,1,1,FM
16,0,0,4,1.1239,0.3228,19,1,34,1,12,7,1,FM
16,0,0,4,1.3631,0.3842,19,1,35,1,12,7,1,FM
16,1,1,4,0.9204,0.3229,19,1,36,1,12,1,1,FM
16,0,0,4,0.9543,0.2721,19,1,37,1,12,1,1,FM
16,1,1,3,1.1175,0.4367,19,1,38,1,12,7,1,FM
16,0,0,3,1.4389,0.8417,19,1,39,1,12,12,1,FM
16,1,1,3,1.0781,0.427,19,1,40,1,12,12,1,FM
16,0,0,3,1.194,0.3845,19,1,41,1,12,6,1,FM
16,1,1,3,1.1637,0.467,19,1,42,1,12,8,1,FM
16,0,1,1,1.3839,0.9951,19,1,43,1,12,11,0,FM
16,1,0,3,1.31,0.5808,19,1,44,1,11,11,0,FM
16,1,1,2,1.1523,0.4365,19,1,45,1,10,9,1,FM
16,1,1,2,1.2794,0.7601,19,1,46,1,10,2,1,FM
16,1,1,3,1.0678,0.5516,19,1,47,1,11,1,1,FM
16,1,1,3,1.2397,0.5212,19,1,48,1,12,3,1,FM
16,0,1,3,1.2384,0.3855,19,1,49,1,12,10,0,FM
16,1,1,3,1.0362,0.3659,19,1,50,1,11,1,1,FM
16,1,1,2,1.0371,0.5193,19,1,51,1,11,2,1,FM
16,0,0,3,1.5228,1.1815,19,1,52,1,12,1,1,FM
16,1,1,3,0.9212,0.5324,19,1,53,1,12,5,1,FM
16,1,1,3,1.3007,0.3757,19,1,54,1,12,7,1,FM
16,0,1,3,1.0247,0.5612,19,1,55,1,12,3,0,FM
16,1,0,3,1.1863,0.3878,19,1,56,1,11,2,0,FM
16,1,0,3,1.4157,0.4893,19,1,57,1,10,3,0,FM
16,0,0,4,1.0264,0.2921,19,1,58,1,9,4,1,FM
16,0,1,2,1.1518,0.4797,19,1,59,1,9,7,0,FM
16,0,0,4,1.4057,0.3018,19,1,60,1,8,8,1,FM
16,1,1,3,0.8772,0.3963,19,1,61,1,8,4,1,FM
16,1,1,4,1.1945,0.312,19,1,62,1,9,7,1,FM
16,0,0,3,1.596,0.5606,19,1,63,1,10,2,1,FM
16,0,0,3,1.3209,0.3537,19,1,64,1,11,7,1,FM
16,0,0,4,1.3633,0.5324,19,1,65,1,12,4,1,FM
16,0,0,3,1.3598,0.9537,19,1,66,1,12,10,1,FM
16,0,0,2,1.6278,0.6344,19,1,67,1,12,6,1,FM
16,1,0,3,1.522,0.7574,19,1,68,1,12,7,0,FM
16,1,1,3,1.4694,0.5409,19,1,69,1,11,7,1,FM
16,1,1,2,1.1849,0.3244,19,1,70,1,11,1,1,FM
16,1,1,2,1.2312,0.3861,19,1,71,1,12,5,1,FM
16,0,0,3,1.6806,0.427,19,1,72,1,12,5,1,FM
16,1,1,2,1.237,0.3855,19,1,73,1,12,3,1,FM
16,1,1,2,1.7975,0.3844,19,1,74,1,12,2,1,FM
16,1,1,2,1.0042,0.386,19,1,75,1,12,11,1,FM
16,0,0,3,1.2784,0.4273,19,1,76,1,12,8,1,FM
16,1,1,1,1.5636,1.1108,19,1,77,1,12,3,1,FM
16,1,0,2,1.2372,0.3533,19,1,78,1,12,2,0,FM
16,1,1,2,1.2792,0.4688,19,1,79,1,11,7,1,FM
16,0,1,2,1.6802,0.7081,19,1,80,1,11,1,0,FM
16,0,0,3,1.3222,0.6257,19,1,81,1,10,10,1,FM
16,1,1,4,1.2164,0.6147,19,1,82,1,10,6,1,FM
16,0,0,4,1.3523,0.6334,19,1,83,1,11,6,1,FM
16,0,0,4,1.0364,0.4077,19,1,84,1,12,9,1,FM
16,1,0,4,1.0466,0.3948,19,1,85,1,12,8,0,FM
16,1,1,4,1.7972,0.4689,19,1,86,1,11,1,1,FM
16,1,1,4,1.5966,1.7612,19,1,87,1,11,10,1,FM
16,0,1,1,1.852,1.1504,19,1,88,1,12,7,0,FM
16,1,1,4,2.4328,0.6329,19,1,89,1,11,7,1,FM
16,1,0,3,1.5927,0.5086,19,1,90,1,11,3,0,FM
16,1,1,3,1.4071,0.7479,19,1,91,1,10,6,1,FM
16,1,1,4,0.911,0.4901,19,1,92,1,10,4,1,FM
16,0,0,4,1.5908,0.7727,19,1,93,1,11,2,1,FM
16,1,0,2,1.2332,0.8418,19,1,94,1,12,5,0,FM
16,0,0,2,2.3116,0.4779,19,1,95,1,11,8,1,FM
16,1,0,2,1.5222,0.5101,19,1,96,1,11,1,0,FM
16,0,0,4,1.1636,0.613,19,1,97,1,10,6,1,FM
16,1,0,3,1.1939,0.6328,19,1,98,1,10,8,0,FM
16,1,1,4,1.1533,0.5009,19,1,99,1,9,7,1,FM
16,1,1,3,1.1096,0.4792,19,1,100,1,9,1,1,FM
16,1,1,4,1.0166,0.4258,19,1,101,1,10,8,1,FM
16,0,0,4,1.8384,0.3428,19,1,102,1,11,10,1,FM
16,0,0,4,0.932,0.3534,19,1,103,1,12,12,1,FM
16,0,0,4,1.1202,0.3431,19,1,104,1,12,7,1,FM
16,1,1,4,0.7611,0.4059,19,1,105,1,12,5,1,FM
16,1,1,4,0.9196,0.3555,19,1,106,1,12,7,1,FM
16,0,0,4,1.0469,0.354,19,1,107,1,12,11,1,FM
16,0,0,4,1.1959,0.4802,19,1,108,1,12,8,1,FM
16,0,0,4,1.0432,0.4481,19,1,109,1,12,6,1,FM
16,0,0,4,0.9523,0.5227,19,1,110,1,12,11,1,FM
16,0,0,4,1.0781,0.4469,19,1,111,1,12,6,1,FM
16,1,1,4,1.1527,0.4382,19,1,112,1,12,11,1,FM
16,0,0,1,1.9981,1.028,19,1,113,1,12,5,1,FM
16,1,1,2,1.0386,0.4781,19,1,114,1,12,2,1,FM
16,0,1,3,1.1966,0.4373,19,1,115,1,12,10,0,FM
16,1,1,3,1.5215,0.5462,19,1,116,1,11,10,1,FM
16,0,1,2,0.9204,0.478,19,1,117,1,11,5,0,FM
16,1,1,4,0.9193,0.3965,19,1,118,1,10,6,1,FM
16,0,0,3,1.6804,0.5193,19,1,119,1,10,3,1,FM
16,0,0,3,1.1133,0.5304,19,1,120,1,11,11,1,FM
17,0,1,4,1.3417,0.616,23,1,1,1,6,3,0,FM
17,0,0,4,1.057,0.5015,23,1,2,1,6,5,1,FM
17,1,0,2,1.0565,0.5226,23,1,3,1,6,5,0,FM
17,0,0,2,1.1096,0.4088,23,1,4,1,5,3,1,FM
17,0,0,4,0.993,0.4704,23,1,5,1,5,2,1,FM
17,1,1,4,1.5212,0.4687,23,1,6,1,6,5,1,FM
17,1,1,4,1.295,0.4811,23,1,7,1,7,3,1,FM
17,0,0,3,1.0126,0.7297,23,1,8,1,8,4,1,FM
17,0,1,4,1.2256,0.3553,23,1,9,1,9,1,0,FM
17,1,0,3,1.0028,0.4916,23,1,10,1,8,6,0,FM
17,1,0,1,1.3204,0.8025,23,1,11,1,7,2,0,FM
17,1,1,3,1.0883,0.4397,23,1,12,1,6,2,1,FM
17,1,1,4,1.2479,0.3642,23,1,13,1,6,2,1,FM
17,0,1,3,1.0441,0.438,23,1,14,1,7,7,0,FM
17,0,0,4,1.2478,0.8435,23,1,15,1,6,4,1,FM
17,1,1,2,1.4725,0.2922,23,1,16,1,6,3,1,FM
17,0,0,3,1.1624,0.5837,23,1,17,1,7,2,1,FM
17,0,1,4,1.0144,0.3967,23,1,18,1,8,3,0,FM
17,0,1,3,1.1747,0.3538,23,1,19,1,7,6,0,FM
17,1,1,2,1.152,0.5317,23,1,20,1,6,3,1,FM
17,0,0,3,1.2405,0.6775,23,1,21,1,6,2,1,FM
17,0,0,4,1.4408,0.5211,23,1,22,1,7,6,1,FM
17,1,1,4,1.4504,0.3243,23,1,23,1,8,8,1,FM
17,0,0,4,1.1637,0.3247,23,1,24,1,9,3,1,FM
17,1,1,3,1.1726,0.5541,23,1,25,1,10,4,1,FM
17,1,0,2,1.215,0.8327,23,1,26,1,11,11,0,FM
17,1,1,2,1.2893,0.3244,23,1,27,1,10,7,1,FM
17,1,0,1,1.2048,0.1571,23,1,28,1,10,6,0,FM
17,0,0,3,0.8249,0.3978,23,1,29,1,9,7,1,FM
17,1,0,2,1.0256,0.7188,23,1,30,1,9,4,0,FM
17,0,0,3,1.0776,0.441,23,1,31,1,8,7,1,FM
17,0,1,3,1.1521,0.406,23,1,32,1,8,6,0,FM
17,0,0,2,1.2465,0.7605,23,1,33,1,7,2,1,FM
17,1,1,4,1.7965,0.4791,23,1,34,1,7,6,1,FM
17,0,0,1,1.3205,0.1278,23,1,35,1,8,4,1,FM
17,0,0,3,1.4784,0.7148,23,1,36,1,9,5,1,FM
17,1,0,2,1.1198,0.7308,23,1,37,1,10,7,0,FM
17,1,1,3,1.1195,0.4381,23,1,38,1,9,7,1,FM
17,0,0,1,1.596,0.3985,23,1,39,1,9,2,1,FM
17,1,1,4,1.2692,0.4502,23,1,40,1,10,3,1,FM
17,1,1,3,1.3002,0.3565,23,1,41,1,11,11,1,FM
17,0,1,2,1.3432,0.7176,23,1,42,1,12,7,0,FM
17,0,0,3,0.9934,0.3985,23,1,43,1,11,1,1,FM
17,0,1,3,1.236,0.3964,23,1,44,1,11,6,0,FM
17,0,1,4,1.0778,0.4274,23,1,45,1,10,7,0,FM
17,1,1,3,1.1621,0.3552,23,1,46,1,9,2,1,FM
17,1,0,4,1.1845,0.3549,23,1,47,1,9,1,0,FM
17,1,1,3,1.1515,0.3969,23,1,48,1,8,3,1,FM
17,0,0,2,1.114,0.3446,23,1,49,1,8,3,1,FM
17,1,1,1,1.2798,0.521,23,1,50,1,9,6,1,FM
17,0,0,2,1.1429,0.2799,23,1,51,1,10,5,1,FM
17,0,1,2,1.3944,0.5108,23,1,52,1,11,10,0,FM
17,0,1,3,1.3822,0.81,23,1,53,1,10,8,0,FM
17,1,0,4,1.4729,0.5318,23,1,54,1,9,6,0,FM
17,1,1,4,1.3925,0.6178,23,1,55,1,8,3,1,FM
17,0,0,4,1.1972,0.4489,23,1,56,1,8,4,1,FM
17,0,0,4,0.7191,0.9558,23,1,57,1,9,2,1,FM
17,1,0,1,1.4367,0.5624,23,1,58,1,10,6,0,FM
17,1,1,3,1.3965,0.802,23,1,59,1,9,6,1,FM
17,0,0,4,1.1938,0.8833,23,1,60,1,9,4,1,FM
17,0,0,4,0.9205,0.3656,23,1,61,1,10,3,1,FM
17,1,1,4,1.0576,0.4914,23,1,62,1,11,3,1,FM
17,1,1,3,1.368,0.6453,23,1,63,1,12,6,1,FM
17,1,1,3,1.6809,1.0174,23,1,64,1,12,1,1,FM
17,1,0,1,1.0133,0.5623,23,1,65,1,12,8,0,FM
17,0,0,4,1.923,0.9052,23,1,66,1,11,9,1,FM
17,1,0,2,1.1304,0.7085,23,1,67,1,11,11,0,FM
17,0,0,3,1.1729,0.6257,23,1,68,1,10,8,1,FM
17,0,1,3,1.1318,0.5962,23,1,69,1,10,3,0,FM
17,0,0,2,1.3634,0.3139,23,1,70,1,9,5,1,FM
17,1,0,2,1.0103,1.3689,23,1,71,1,9,8,0,FM
17,0,0,3,0.93,1.0277,23,1,72,1,8,5,1,FM
17,1,1,3,1.3263,0.4163,23,1,73,1,8,1,1,FM
17,0,0,3,0.9198,0.6746,23,1,74,1,9,1,1,FM
17,1,1,2,1.6376,0.564,23,1,75,1,10,4,1,FM
17,0,1,3,1.6056,0.5951,23,1,76,1,11,10,0,FM
17,1,0,1,1.3206,0.6328,23,1,77,1,10,2,0,FM
17,1,1,3,1.1304,0.5429,23,1,78,1,9,1,1,FM
17,0,0,3,1.1415,0.7897,23,1,79,1,9,7,1,FM
17,0,0,2,1.2895,0.355,23,1,80,1,10,6,1,FM
17,0,1,2,1.4388,0.8731,23,1,81,1,11,3,0,FM
17,1,0,2,1.1734,0.3553,23,1,82,1,10,4,0,FM
17,1,1,1,1.9986,0.7515,23,1,83,1,9,6,1,FM
17,1,0,1,1.2787,1.3889,23,1,84,1,9,8,0,FM
17,0,0,4,1.1054,0.3538,23,1,85,1,8,3,1,FM
17,0,0,3,1.1304,0.3227,23,1,86,1,8,1,1,FM
17,0,0,2,1.2904,0.2706,23,1,87,1,9,3,1,FM
17,0,0,2,1.1304,0.2798,23,1,88,1,10,9,1,FM
17,0,0,3,1.3989,0.3551,23,1,89,1,11,9,1,FM
17,1,1,4,1.2055,0.4828,23,1,90,1,12,11,1,FM
17,0,1,1,1.4868,0.8239,23,1,91,1,12,11,0,FM
17,1,1,4,1.2257,0.7161,23,1,92,1,11,7,1,FM
17,1,0,4,1.7487,0.2829,23,1,93,1,11,8,0,FM
17,1,0,4,1.0786,0.3569,23,1,94,1,10,8,0,FM
17,1,1,3,1.3203,0.3675,23,1,95,1,9,2,1,FM
17,1,0,4,1.5445,0.409,23,1,96,1,9,8,0,FM
17,0,0,4,0.9751,0.3151,23,1,97,1,8,7,1,FM
17,0,0,1,1.1625,0.6038,23,1,98,1,8,6,1,FM
17,0,0,1,1.3205,0.2413,23,1,99,1,9,1,1,FM
17,1,1,4,1.046,0.3877,23,1,100,1,10,7,1,FM
17,1,0,2,1.0038,0.5628,23,1,101,1,11,10,0,FM
17,1,1,2,1.5125,0.5639,23,1,102,1,10,9,1,FM
17,0,NaN,NaN,2.9939,2.9958,23,1,103,1,10,4,0,FM
17,1,0,3,1.3204,1.1921,23,1,104,1,9,2,0,FM
17,1,0,1,1.089,0.4676,23,1,105,1,8,8,0,FM
17,1,1,4,1.2043,0.4979,23,1,106,1,7,7,1,FM
17,1,0,2,1.0796,0.3124,23,1,107,1,7,4,0,FM
17,1,1,4,1.1521,0.3653,23,1,108,1,6,1,1,FM
17,0,0,1,1.4646,0.6026,23,1,109,1,6,2,1,FM
17,0,1,2,1.0717,0.409,23,1,110,1,7,7,0,FM
17,1,1,3,1.4723,0.6774,23,1,111,1,6,1,1,FM
17,0,0,4,1.1516,0.3448,23,1,112,1,6,5,1,FM
17,0,0,2,1.1092,0.3643,23,1,113,1,7,7,1,FM
17,1,1,3,1.3103,0.4689,23,1,114,1,8,5,1,FM
17,0,0,2,1.1206,0.4795,23,1,115,1,9,4,1,FM
17,1,0,2,1.3538,0.2706,23,1,116,1,10,5,0,FM
17,1,1,3,1.1141,0.3241,23,1,117,1,9,8,1,FM
17,0,0,4,1.4683,0.4306,23,1,118,1,9,6,1,FM
17,1,0,4,1.3964,0.3215,23,1,119,1,10,3,0,FM
17,0,0,4,1.0352,0.3539,23,1,120,1,9,1,1,FM
18,0,0,1,1.1419,0.6345,19,1,1,1,6,4,1,FM
18,1,1,2,1.1101,0.9847,19,1,2,1,6,5,1,FM
18,1,0,1,1.7665,0.4665,19,1,3,1,7,4,0,FM
18,0,0,1,1.2053,0.3953,19,1,4,1,6,5,1,FM
18,1,1,2,1.0573,0.5495,19,1,5,1,6,6,1,FM
18,1,0,1,1.3314,0.8602,19,1,6,1,7,7,0,FM
18,0,0,1,1.0489,0.3539,19,1,7,1,6,2,1,FM
18,0,0,1,1.0149,0.3538,19,1,8,1,6,3,1,FM
18,0,0,1,0.814,0.395,19,1,9,1,7,1,1,FM
18,1,1,4,0.9734,0.9336,19,1,10,1,8,1,1,FM
18,1,1,2,1.2077,0.5626,19,1,11,1,9,6,1,FM
18,1,1,1,1.2053,0.5813,19,1,12,1,10,5,1,FM
18,1,1,2,1.1949,0.7898,19,1,13,1,11,8,1,FM
18,1,1,2,1.4058,0.6738,19,1,14,1,12,12,1,FM
18,0,0,1,1.0041,0.2801,19,1,15,1,12,7,1,FM
18,0,0,1,1.4911,0.3525,19,1,16,1,12,9,1,FM
18,1,1,2,1.0884,0.4264,19,1,17,1,12,2,1,FM
18,1,1,2,1.2157,0.6225,19,1,18,1,12,4,1,FM
18,1,0,1,1.3321,0.3966,19,1,19,1,12,3,0,FM
18,0,1,2,2.2304,0.6773,19,1,20,1,11,3,0,FM
18,0,1,2,2.7102,0.7072,19,1,21,1,10,8,0,FM
18,0,0,1,1.058,0.2707,19,1,22,1,9,9,1,FM
18,0,0,1,1.1648,0.2296,19,1,23,1,9,9,1,FM
18,0,0,1,2.0828,0.2711,19,1,24,1,10,2,1,FM
18,0,1,2,0.8989,0.4384,19,1,25,1,11,7,0,FM
18,1,0,1,1.8848,0.1677,19,1,26,1,10,3,0,FM
18,0,0,1,1.2063,0.3143,19,1,27,1,9,7,1,FM
18,1,1,2,1.4066,0.3648,19,1,28,1,9,7,1,FM
18,1,1,2,2.0831,0.6241,19,1,29,1,10,7,1,FM
18,0,0,1,1.057,0.2707,19,1,30,1,11,8,1,FM
18,0,0,1,0.8878,0.3845,19,1,31,1,12,8,1,FM
18,0,0,1,2.1205,0.8087,19,1,32,1,12,4,1,FM
18,0,0,1,1.3244,0.2282,19,1,33,1,12,12,1,FM
18,1,1,3,0.7724,0.7903,19,1,34,1,12,11,1,FM
18,1,1,3,1.0199,0.4798,19,1,35,1,12,8,1,FM
18,1,1,2,1.4909,0.3844,19,1,36,1,12,11,1,FM
18,1,1,2,1.6065,0.2492,19,1,37,1,12,6,1,FM
18,1,1,2,0.9843,0.2721,19,1,38,1,12,8,1,FM
18,0,1,2,1.3328,0.3868,19,1,39,1,12,1,0,FM
18,0,1,2,1.0147,0.2846,19,1,40,1,11,4,0,FM
18,1,0,1,2.1113,0.2923,19,1,41,1,10,10,0,FM
18,1,0,1,1.6827,0.2706,19,1,42,1,9,4,0,FM
18,1,1,2,0.8936,0.2829,19,1,43,1,8,8,1,FM
18,1,1,2,1.0677,0.3228,19,1,44,1,8,5,1,FM
18,1,0,1,1.6805,0.5506,19,1,45,1,9,6,0,FM
18,0,0,1,2.9821,0.592,19,1,46,1,8,2,1,FM
18,0,0,1,0.8533,0.2829,19,1,47,1,8,5,1,FM
18,0,1,1,1.0564,0.4284,19,1,48,1,9,7,0,FM
18,0,0,1,1.876,0.8103,19,1,49,1,8,3,1,FM
18,0,0,1,1.6067,0.1479,19,1,50,1,8,7,1,FM
18,1,0,1,1.9242,0.1679,19,1,51,1,9,4,0,FM
18,1,1,1,0.6359,0.1868,19,1,52,1,8,7,1,FM
18,0,1,3,1.3644,0.2307,19,1,53,1,8,5,0,FM
18,0,0,2,2.8336,0.6335,19,1,54,1,7,4,1,FM
18,0,0,1,1.1734,0.1878,19,1,55,1,7,1,1,FM
18,1,0,1,1.6103,0.2293,19,1,56,1,8,3,0,FM
18,0,0,1,1.0467,0.28,19,1,57,1,7,4,1,FM
18,1,0,1,2.8327,0.5413,19,1,58,1,7,7,0,FM
18,1,1,3,0.9412,0.5093,19,1,59,1,6,3,1,FM
18,0,0,1,1.1318,0.2095,19,1,60,1,6,4,1,FM
18,0,0,1,1.2897,0.5107,19,1,61,1,7,5,1,FM
18,1,1,4,1.2919,0.5637,19,1,62,1,8,4,1,FM
18,0,0,1,1.2483,0.3862,19,1,63,1,9,9,1,FM
18,0,0,1,0.898,0.2708,19,1,64,1,10,2,1,FM
18,1,0,1,1.1517,0.5942,19,1,65,1,11,8,0,FM
18,0,1,2,0.8942,0.3236,19,1,66,1,10,4,0,FM
18,1,1,4,1.2083,0.5127,19,1,67,1,9,7,1,FM
18,1,1,2,1.2582,0.4688,19,1,68,1,9,7,1,FM
18,1,0,1,1.491,0.241,19,1,69,1,10,10,0,FM
18,1,0,1,1.6494,0.3124,19,1,70,1,9,6,0,FM
18,0,0,1,1.639,0.2725,19,1,71,1,8,4,1,FM
18,0,0,1,0.7297,0.1558,19,1,72,1,8,2,1,FM
18,1,1,2,0.9623,0.3125,19,1,73,1,9,2,1,FM
18,1,1,3,1.0039,0.4259,19,1,74,1,10,6,1,FM
18,0,1,2,2.0081,0.2723,19,1,75,1,11,9,0,FM
18,1,0,1,2.3775,0.6026,19,1,76,1,10,10,0,FM
18,1,1,2,2.1774,0.6257,19,1,77,1,9,6,1,FM
18,1,0,1,1.5536,0.4677,19,1,78,1,9,1,0,FM
18,1,0,1,1.0421,0.2001,19,1,79,1,8,3,0,FM
18,0,1,2,1.5543,0.2389,19,1,80,1,7,3,0,FM
18,0,0,1,1.2486,0.2707,19,1,81,1,6,3,1,FM
18,1,1,4,0.9261,0.5951,19,1,82,1,6,1,1,FM
18,1,1,3,1.005,0.3738,19,1,83,1,7,6,1,FM
18,0,1,2,1.0456,0.293,19,1,84,1,8,2,0,FM
18,0,0,1,1.017,0.1557,19,1,85,1,7,1,1,FM
18,1,0,1,1.133,0.241,19,1,86,1,7,7,0,FM
18,0,0,1,1.0053,0.3657,19,1,87,1,6,1,1,FM
18,1,1,3,1.0476,0.4382,19,1,88,1,6,2,1,FM
18,0,0,1,1.6065,0.1986,19,1,89,1,7,5,1,FM
18,0,1,2,1.2482,0.0435,19,1,90,1,8,4,0,FM
18,1,1,3,0.9307,0.4888,19,1,91,1,7,3,1,FM
18,1,1,3,1.0295,0.2508,19,1,92,1,7,3,1,FM
18,0,0,1,1.0578,0.3247,19,1,93,1,8,4,1,FM
18,1,0,1,2.4729,0.4781,19,1,94,1,9,3,0,FM
18,1,NaN,2,2.9923,0.8223,19,1,95,1,8,4,0,FM
18,1,1,2,1.3229,0.3647,19,1,96,1,7,2,1,FM
18,0,0,1,1.9241,0.408,19,1,97,1,7,2,1,FM
18,1,1,2,1.1003,0.2307,19,1,98,1,8,3,1,FM
18,0,0,1,1.2584,0.3232,19,1,99,1,9,8,1,FM
18,0,1,2,1.2939,0.3153,19,1,100,1,10,8,0,FM
18,1,1,3,1.0467,0.2829,19,1,101,1,9,4,1,FM
18,0,1,2,1.2906,0.2401,19,1,102,1,9,7,0,FM
18,0,0,1,1.5761,0.3969,19,1,103,1,8,7,1,FM
18,1,1,3,0.9312,0.2802,19,1,104,1,8,3,1,FM
18,0,0,1,1.5645,0.168,19,1,105,1,9,8,1,FM
18,0,NaN,1,2.9924,0.3049,19,1,106,1,10,7,0,FM
18,0,0,1,2.0823,0.4796,19,1,107,1,9,6,1,FM
18,0,0,1,1.0147,0.2722,19,1,108,1,9,8,1,FM
18,1,0,1,1.4456,0.1572,19,1,109,1,10,8,0,FM
18,1,1,2,0.6878,0.4688,19,1,110,1,9,2,1,FM
18,1,1,2,1.1319,0.4044,19,1,111,1,9,5,1,FM
18,1,0,1,1.9996,0.3992,19,1,112,1,10,1,0,FM
18,0,0,1,0.7721,0.1878,19,1,113,1,9,2,1,FM
18,0,0,1,0.625,0.2297,19,1,114,1,9,7,1,FM
18,0,0,1,0.6882,0.1986,19,1,115,1,10,3,1,FM
18,0,1,2,1.1748,0.2308,19,1,116,1,11,10,0,FM
18,1,0,2,0.8221,1.8332,19,1,117,1,10,10,0,FM
18,0,0,1,0.8142,0.1971,19,1,118,1,9,1,1,FM
18,0,0,1,1.0488,0.1679,19,1,119,1,9,2,1,FM
18,1,1,2,1.4057,0.2078,19,1,120,1,10,7,1,FM
19,0,0,3,1.1845,0.8656,21,1,1,1,6,4,1,FM
19,1,1,4,0.942,0.5995,21,1,2,1,6,2,1,FM
19,0,0,4,0.8984,0.3568,21,1,3,1,7,2,1,FM
19,1,1,3,1.1638,0.5456,21,1,4,1,8,3,1,FM
19,1,1,4,0.9738,0.3598,21,1,5,1,9,8,1,FM
19,0,1,2,1.3737,0.274,21,1,6,1,10,2,0,FM
19,1,1,2,1.364,0.306,21,1,7,1,9,9,1,FM
19,1,1,3,1.8918,0.8656,21,1,8,1,9,2,1,FM
19,0,0,4,1.1308,0.4289,21,1,9,1,10,5,1,FM
19,0,0,4,2.0884,0.4428,21,1,10,1,11,1,1,FM
19,1,1,2,1.3111,0.3152,21,1,11,1,12,11,1,FM
19,0,0,4,1.4461,0.6779,21,1,12,1,12,6,1,FM
19,1,1,4,1.0924,0.2973,21,1,13,1,12,1,1,FM
19,0,0,3,1.9981,0.4366,21,1,14,1,12,9,1,FM
19,0,0,4,1.3664,0.398,21,1,15,1,12,3,1,FM
19,1,1,4,1.1326,0.3167,21,1,16,1,12,5,1,FM
19,1,1,2,1.3317,0.2739,21,1,17,1,12,5,1,FM
19,0,0,4,0.8249,0.3461,21,1,18,1,12,6,1,FM
19,0,0,4,0.8606,0.3156,21,1,19,1,12,3,1,FM
19,0,1,3,1.6065,0.5855,21,1,20,1,12,4,0,FM
19,1,1,4,1.0465,0.2749,21,1,21,1,11,6,1,FM
19,1,1,2,1.2475,0.1904,21,1,22,1,11,5,1,FM
19,1,1,4,1.0157,0.429,21,1,23,1,12,5,1,FM
19,1,0,2,1.8889,1.1855,21,1,24,1,12,10,0,FM
19,0,1,3,1.3854,0.8654,21,1,25,1,11,5,0,FM
19,1,1,2,1.1641,0.4718,21,1,26,1,10,9,1,FM
19,1,1,4,1.0358,0.3149,21,1,27,1,10,7,1,FM
19,0,0,2,1.9971,0.4705,21,1,28,1,11,5,1,FM
19,0,0,4,0.9199,0.3256,21,1,29,1,12,11,1,FM
19,0,0,4,2.0717,0.5012,21,1,30,1,12,7,1,FM
19,1,0,2,2.0294,0.5441,21,1,31,1,12,3,0,FM
19,0,0,2,1.5547,0.5105,21,1,32,1,11,10,1,FM
19,1,1,4,0.8036,0.3056,21,1,33,1,11,10,1,FM
19,0,0,4,1.1942,0.2738,21,1,34,1,12,6,1,FM
19,1,0,2,1.1736,1.028,21,1,35,1,12,5,0,FM
19,1,1,4,1.3215,0.2845,21,1,36,1,11,10,1,FM
19,1,1,4,1.4792,0.2753,21,1,37,1,11,5,1,FM
19,0,0,2,1.7975,0.2721,21,1,38,1,12,9,1,FM
19,0,0,3,2.101,1.0403,21,1,39,1,12,1,1,FM
19,0,0,4,1.4714,0.3153,21,1,40,1,12,1,1,FM
19,0,0,2,1.2374,0.3033,21,1,41,1,12,6,1,FM
19,1,1,2,0.9712,0.8565,21,1,42,1,12,9,1,FM
19,0,0,2,1.3953,0.7489,21,1,43,1,12,7,1,FM
19,0,1,2,1.7457,0.4088,21,1,44,1,12,3,0,FM
19,1,1,4,1.036,0.306,21,1,45,1,11,7,1,FM
19,0,0,2,1.361,0.3139,21,1,46,1,11,4,1,FM
19,0,1,2,1.7238,1.1032,21,1,47,1,12,12,0,FM
19,1,1,4,1.3068,0.3167,21,1,48,1,11,8,1,FM
19,0,0,4,0.9618,0.3136,21,1,49,1,11,1,1,FM
19,1,0,2,2.3048,0.5429,21,1,50,1,12,4,0,FM
19,0,0,4,0.8884,0.3152,21,1,51,1,11,3,1,FM
19,0,0,4,2.1555,0.6288,21,1,52,1,11,10,1,FM
19,1,1,3,1.6929,0.5668,21,1,53,1,12,5,1,FM
19,0,1,2,1.5217,0.5442,21,1,54,1,12,4,0,FM
19,0,0,4,1.2053,0.3145,21,1,55,1,11,10,1,FM
19,1,1,4,1.0736,0.3889,21,1,56,1,11,6,1,FM
19,1,0,3,1.7234,0.4596,21,1,57,1,12,12,0,FM
19,1,1,4,0.9728,0.3163,21,1,58,1,11,8,1,FM
19,1,0,2,0.9733,0.4274,21,1,59,1,11,11,0,FM
19,1,1,3,1.1324,0.5844,21,1,60,1,10,7,1,FM
19,0,0,4,0.9757,0.3152,21,1,61,1,10,3,1,FM
19,1,1,4,1.2897,0.3494,21,1,62,1,11,4,1,FM
19,0,0,4,1.0042,0.3459,21,1,63,1,12,8,1,FM
19,1,0,1,2.0834,0.3458,21,1,64,1,12,10,0,FM
19,0,0,4,1.9232,0.9772,21,1,65,1,11,10,1,FM
19,0,0,2,1.0581,0.4597,21,1,66,1,11,9,1,FM
19,1,1,2,1.9598,0.515,21,1,67,1,12,4,1,FM
19,1,1,4,1.1761,0.3394,21,1,68,1,12,3,1,FM
19,0,0,3,1.6173,0.439,21,1,69,1,12,1,1,FM
19,1,1,2,2.1561,0.5028,21,1,70,1,12,10,1,FM
19,1,1,4,1.0146,0.4624,21,1,71,1,12,7,1,FM
19,1,0,2,1.2052,0.2325,21,1,72,1,12,4,0,FM
19,1,1,4,0.975,0.3278,21,1,73,1,11,5,1,FM
19,0,0,4,1.4376,0.3137,21,1,74,1,11,1,1,FM
19,1,1,4,1.2273,0.5548,21,1,75,1,12,6,1,FM
19,0,1,4,1.649,0.9029,21,1,76,1,12,9,0,FM
19,0,0,2,1.411,0.3567,21,1,77,1,11,11,1,FM
19,0,0,4,0.9306,0.3873,21,1,78,1,11,11,1,FM
19,1,1,4,0.8143,0.3168,21,1,79,1,12,12,1,FM
19,1,1,3,0.9723,0.67,21,1,80,1,12,7,1,FM
19,1,1,4,0.9416,0.3059,21,1,81,1,12,1,1,FM
19,1,0,1,1.6804,0.5409,21,1,82,1,12,10,0,FM
19,0,0,4,1.5261,0.4691,21,1,83,1,11,1,1,FM
19,1,1,4,1.0044,0.3167,21,1,84,1,11,1,1,FM
19,0,0,2,1.6825,0.5536,21,1,85,1,12,12,1,FM
19,0,0,4,0.9728,0.429,21,1,86,1,12,1,1,FM
19,1,1,2,1.491,0.3565,21,1,87,1,12,5,1,FM
19,0,0,2,1.406,0.6227,21,1,88,1,12,9,1,FM
19,1,1,2,1.4476,0.9478,21,1,89,1,12,11,1,FM
19,1,1,4,1.0041,0.3597,21,1,90,1,12,7,1,FM
19,1,0,2,1.8702,0.4798,21,1,91,1,12,12,0,FM
19,1,1,4,1.0361,0.3382,21,1,92,1,11,6,1,FM
19,1,1,2,2.5735,0.2738,21,1,93,1,11,7,1,FM
19,0,1,3,0.9938,0.7116,21,1,94,1,12,10,0,FM
19,0,1,2,1.5118,0.6687,21,1,95,1,11,5,0,FM
19,0,1,2,1.7222,0.472,21,1,96,1,10,10,0,FM
19,0,0,4,1.243,0.3447,21,1,97,1,9,2,1,FM
19,0,0,3,1.2788,0.3033,21,1,98,1,9,4,1,FM
19,1,1,4,1.2375,0.2749,21,1,99,1,10,4,1,FM
19,1,1,3,1.4265,0.5481,21,1,100,1,11,7,1,FM
19,0,0,3,1.1221,0.6055,21,1,101,1,12,2,1,FM
19,0,0,4,1.0369,0.6776,21,1,102,1,12,6,1,FM
19,1,1,4,0.9538,0.3187,21,1,103,1,12,12,1,FM
19,0,1,2,1.9061,0.3169,21,1,104,1,12,9,0,FM
19,0,0,4,1.4799,0.3565,21,1,105,1,11,8,1,FM
19,1,0,2,1.2265,0.3154,21,1,106,1,11,4,0,FM
19,0,0,4,1.1553,0.3353,21,1,107,1,10,4,1,FM
19,1,1,4,1.0781,0.3491,21,1,108,1,10,9,1,FM
19,0,0,2,1.7138,0.3136,21,1,109,1,11,6,1,FM
19,0,0,4,1.2371,0.3476,21,1,110,1,12,1,1,FM
19,0,0,4,1.5882,0.3459,21,1,111,1,12,6,1,FM
19,0,0,1,1.8304,0.3873,21,1,112,1,12,10,1,FM
19,0,0,4,1.1947,0.3137,21,1,113,1,12,8,1,FM
19,0,0,3,1.5599,0.4274,21,1,114,1,12,2,1,FM
19,1,1,4,1.348,0.3474,21,1,115,1,12,7,1,FM
19,0,1,2,1.8376,0.3159,21,1,116,1,12,9,0,FM
19,1,1,2,1.474,0.3262,21,1,117,1,11,11,1,FM
19,1,1,4,1.0791,0.6687,21,1,118,1,11,8,1,FM
19,1,1,4,1.5154,0.5564,21,1,119,1,12,3,1,FM
19,1,1,4,0.9201,0.3167,21,1,120,1,12,7,1,FM
1,1,1,4,0.4763,0.5399,21,1,1,2,6,3,1,IM
1,0,0,4,0.6984,0.4145,21,1,2,2,6,5,1,IM
1,1,1,4,0.8896,0.1556,21,1,3,2,7,6,1,IM
1,1,1,4,0.8199,0.1556,21,1,4,2,8,2,1,IM
1,0,0,4,0.614,0.3231,21,1,5,2,9,2,1,IM
1,1,1,4,0.8462,0.1452,21,1,6,2,10,8,1,IM
1,1,1,4,0.6558,0.2913,21,1,7,2,11,7,1,IM
1,0,0,4,0.7313,0.3218,21,1,8,2,12,1,1,IM
1,1,0,3,1.2156,0.5813,21,1,9,2,12,9,0,IM
1,0,0,4,0.7392,0.5497,21,1,10,2,11,4,1,IM
1,1,1,4,0.7726,0.2402,21,1,11,2,11,10,1,IM
1,1,1,4,0.74,0.1891,21,1,12,2,12,1,1,IM
1,1,1,4,0.6542,0.2385,21,1,13,2,12,10,1,IM
1,0,0,4,0.9311,1.057,21,1,14,2,12,9,1,IM
1,0,0,4,0.8578,0.2079,21,1,15,2,12,10,1,IM
1,1,1,4,1.2159,0.1866,21,1,16,2,12,12,1,IM
1,1,1,4,0.74,0.1975,21,1,17,2,12,7,1,IM
1,0,0,4,0.8252,1.0261,21,1,18,2,12,7,1,IM
1,1,1,4,0.6555,0.3544,21,1,19,2,12,6,1,IM
1,0,0,4,1.1339,0.5597,21,1,20,2,12,10,1,IM
1,0,0,4,0.7401,0.2591,21,1,21,2,12,9,1,IM
1,1,0,4,1.0899,2.6095,21,1,22,2,12,7,0,IM
1,0,0,4,0.656,0.1868,21,1,23,2,11,6,1,IM
1,0,0,4,0.8906,0.1557,21,1,24,2,11,1,1,IM
1,1,1,4,0.6244,0.3006,21,1,25,2,12,6,1,IM
1,1,1,2,1.0528,1.4724,21,1,26,2,12,9,1,IM
1,1,1,4,0.8556,0.5493,21,1,27,2,12,7,1,IM
1,1,1,4,0.7827,0.1986,21,1,28,2,12,7,1,IM
1,0,1,4,0.5823,0.2411,21,1,29,2,12,10,0,IM
1,0,0,4,1.1758,0.5493,21,1,30,2,11,3,1,IM
1,1,1,4,0.7826,0.2615,21,1,31,2,11,7,1,IM
1,1,1,4,0.7301,0.2612,21,1,32,2,12,6,1,IM
